English,Portuguese,instructions.thisRepN,instructions.thisTrialN,instructions.thisN,instructions.thisIndex,cycle.thisRepN,cycle.thisTrialN,cycle.thisN,cycle.thisIndex,study_period.thisRepN,study_period.thisTrialN,study_period.thisN,study_period.thisIndex,distractor_period.thisRepN,distractor_period.thisTrialN,distractor_period.thisN,distractor_period.thisIndex,test_period.thisRepN,test_period.thisTrialN,test_period.thisN,test_period.thisIndex,instruction_text.started,instruction_image.started,back_button.started,next_button.started,back_button.numClicks,back_button.timesOn,back_button.timesOff,next_button.numClicks,next_button.timesOn,next_button.timesOff,cue_study.started,target_study.started,cue_study.stopped,target_study.stopped,math_prompt.started,math_problem.started,math_resp.started,math_line.started,factor1,factor2,product,distractor_response,teclas_pressionadas,teclas_pressionadas_tempo,distractor_resp_corr,prompt_msg.started,prompt_resp.started,cue_test.started,target_test.started,response_corr,condition,target_test.text,cue_test.stopped,target_test.stopped,thanks_msg.started,thanks_resp.started,session_duration,participant,session,date,expName,psychopyVersion,frameRate,
trouble,problema,,,,,0,0,0,0,0,0,0,35,,,,,,,,,198.4908249,198.4908249,198.4908249,198.4908249,4,"[3.1949369000067236, 0.5968224999960512, 0.15087990000029095, 0.12859670000034384]","[0.07245620001049247, 0.05042590000084601, 0.06121639999037143, 0.03235699998913333]",8,"[0.5228492000023834, 0.3644700000004377, 0.19968960000551306, 0.14537040000141133, 0.2995208000065759, 0.1551227000018116, 0.13575990000390448, 0.4150958000100218]","[0.06425889999081846, 0.06595950000337325, 0.061350399992079474, 0.08002950000809506, 0.05551830001058988, 0.052499099998385645, 0.06522250000853091, 0.41510589999961667]",198.96617879999394,198.96617879999394,,,,,,,,,,,,,,,,,,,,,,,,,,robson,001,2023-01-28_17h04.32.129,aula_047,2022.2.1,60.53375028609759,
dog,cachorro,,,,,0,0,0,0,0,1,1,0,,,,,,,,,,,,,,,,,,,203.94063830000232,203.94063830000232,,,,,,,,,,,,,,,,,,,,,,,,,,robson,001,2023-01-28_17h04.32.129,aula_047,2022.2.1,60.53375028609759,
flood,enchente,,,,,0,0,0,0,0,2,2,39,,,,,,,,,,,,,,,,,,,208.92165409999143,208.92165409999143,,,,,,,,,,,,,,,,,,,,,,,,,,robson,001,2023-01-28_17h04.32.129,aula_047,2022.2.1,60.53375028609759,
bribe,propina,,,,,0,0,0,0,0,3,3,38,,,,,,,,,,,,,,,,,,,213.9377778999915,213.9377778999915,,,,,,,,,,,,,,,,,,,,,,,,,,robson,001,2023-01-28_17h04.32.129,aula_047,2022.2.1,60.53375028609759,
garden,jardim,,,,,0,0,0,0,0,4,4,24,,,,,,,,,,,,,,,,,,,218.92217289999826,218.92217289999826,,,,,,,,,,,,,,,,,,,,,,,,,,robson,001,2023-01-28_17h04.32.129,aula_047,2022.2.1,60.53375028609759,
lake,lago,,,,,0,0,0,0,0,5,5,22,,,,,,,,,,,,,,,,,,,223.92231670000183,223.92231670000183,,,,,,,,,,,,,,,,,,,,,,,,,,robson,001,2023-01-28_17h04.32.129,aula_047,2022.2.1,60.53375028609759,
dust,poeira,,,,,0,0,0,0,0,6,6,29,,,,,,,,,,,,,,,,,,,228.92201009999553,228.92201009999553,,,,,,,,,,,,,,,,,,,,,,,,,,robson,001,2023-01-28_17h04.32.129,aula_047,2022.2.1,60.53375028609759,
food,comida,,,,,0,0,0,0,0,7,7,9,,,,,,,,,,,,,,,,,,,233.92168759999913,233.92168759999913,,,,,,,,,,,,,,,,,,,,,,,,,,robson,001,2023-01-28_17h04.32.129,aula_047,2022.2.1,60.53375028609759,
poison,veneno,,,,,0,0,0,0,0,8,8,7,,,,,,,,,,,,,,,,,,,238.9218877999956,238.9218877999956,,,,,,,,,,,,,,,,,,,,,,,,,,robson,001,2023-01-28_17h04.32.129,aula_047,2022.2.1,60.53375028609759,
bone,osso,,,,,0,0,0,0,0,9,9,33,,,,,,,,,,,,,,,,,,,243.92159230000107,243.92159230000107,248.92120430000068,248.92120430000068,,,,,,,,,,,,,,,,,,,,,,,,robson,001,2023-01-28_17h04.32.129,aula_047,2022.2.1,60.53375028609759,
olives,azeitona,,,,,0,0,0,0,0,10,10,23,,,,,,,,,,,,,,,,,,,248.92120430000068,248.92120430000068,,,,,,,,,,,,,,,,,,,,,,,,,,robson,001,2023-01-28_17h04.32.129,aula_047,2022.2.1,60.53375028609759,
queen,rainha,,,,,0,0,0,0,0,11,11,14,,,,,,,,,,,,,,,,,,,254.83610770000087,254.83610770000087,,,,,,,,,,,,,,,,,,,,,,,,,,robson,001,2023-01-28_17h04.32.129,aula_047,2022.2.1,60.53375028609759,
cloud,nuvem,,,,,0,0,0,0,0,12,12,1,,,,,,,,,,,,,,,,,,,258.9538196999929,258.9538196999929,,,,,,,,,,,,,,,,,,,,,,,,,,robson,001,2023-01-28_17h04.32.129,aula_047,2022.2.1,60.53375028609759,
silk,seda,,,,,0,0,0,0,0,13,13,13,,,,,,,,,,,,,,,,,,,263.9372252999892,263.9372252999892,,,,,,,,,,,,,,,,,,,,,,,,,,robson,001,2023-01-28_17h04.32.129,aula_047,2022.2.1,60.53375028609759,
scarf,cachecol,,,,,0,0,0,0,0,14,14,12,,,,,,,,,,,,,,,,,,,268.93688749999274,268.93688749999274,,,,,,,,,,,,,,,,,,,,,,,,,,robson,001,2023-01-28_17h04.32.129,aula_047,2022.2.1,60.53375028609759,
parrot,papagaio,,,,,0,0,0,0,0,15,15,37,,,,,,,,,,,,,,,,,,,273.93635749998793,273.93635749998793,,,,,,,,,,,,,,,,,,,,,,,,,,robson,001,2023-01-28_17h04.32.129,aula_047,2022.2.1,60.53375028609759,
friend,amigo,,,,,0,0,0,0,0,16,16,18,,,,,,,,,,,,,,,,,,,278.93631219999224,278.93631219999224,,,,,,,,,,,,,,,,,,,,,,,,,,robson,001,2023-01-28_17h04.32.129,aula_047,2022.2.1,60.53375028609759,
beer,cerveja,,,,,0,0,0,0,0,17,17,4,,,,,,,,,,,,,,,,,,,283.9358123999991,283.9358123999991,,,,,,,,,,,,,,,,,,,,,,,,,,robson,001,2023-01-28_17h04.32.129,aula_047,2022.2.1,60.53375028609759,
wheel,roda,,,,,0,0,0,0,0,18,18,31,,,,,,,,,,,,,,,,,,,288.9356221999915,288.9356221999915,,,,,,,,,,,,,,,,,,,,,,,,,,robson,001,2023-01-28_17h04.32.129,aula_047,2022.2.1,60.53375028609759,
egg,ovo,,,,,0,0,0,0,0,19,19,3,,,,,,,,,,,,,,,,,,,293.93551379999553,293.93551379999553,,,,,,,,,,,,,,,,,,,,,,,,,,robson,001,2023-01-28_17h04.32.129,aula_047,2022.2.1,60.53375028609759,
donkey,burro,,,,,0,0,0,0,0,20,20,20,,,,,,,,,,,,,,,,,,,298.9511896999902,298.9511896999902,,,,,,,,,,,,,,,,,,,,,,,,,,robson,001,2023-01-28_17h04.32.129,aula_047,2022.2.1,60.53375028609759,
curtain,cortina,,,,,0,0,0,0,0,21,21,16,,,,,,,,,,,,,,,,,,,303.93494989999454,303.93494989999454,,,,,,,,,,,,,,,,,,,,,,,,,,robson,001,2023-01-28_17h04.32.129,aula_047,2022.2.1,60.53375028609759,
yeast,levedura,,,,,0,0,0,0,0,22,22,28,,,,,,,,,,,,,,,,,,,308.935003999999,308.935003999999,,,,,,,,,,,,,,,,,,,,,,,,,,robson,001,2023-01-28_17h04.32.129,aula_047,2022.2.1,60.53375028609759,
snow,neve,,,,,0,0,0,0,0,23,23,17,,,,,,,,,,,,,,,,,,,313.9348317999975,313.9348317999975,,,,,,,,,,,,,,,,,,,,,,,,,,robson,001,2023-01-28_17h04.32.129,aula_047,2022.2.1,60.53375028609759,
glue,cola,,,,,0,0,0,0,0,24,24,30,,,,,,,,,,,,,,,,,,,318.93432980000216,318.93432980000216,,,,,,,,,,,,,,,,,,,,,,,,,,robson,001,2023-01-28_17h04.32.129,aula_047,2022.2.1,60.53375028609759,
plate,prato,,,,,0,0,0,0,0,25,25,34,,,,,,,,,,,,,,,,,,,323.9339959999925,323.9339959999925,,,,,,,,,,,,,,,,,,,,,,,,,,robson,001,2023-01-28_17h04.32.129,aula_047,2022.2.1,60.53375028609759,
carpet,tapete,,,,,0,0,0,0,0,26,26,15,,,,,,,,,,,,,,,,,,,328.9501627999998,328.9501627999998,,,,,,,,,,,,,,,,,,,,,,,,,,robson,001,2023-01-28_17h04.32.129,aula_047,2022.2.1,60.53375028609759,
leaf,folha,,,,,0,0,0,0,0,27,27,26,,,,,,,,,,,,,,,,,,,333.94946839999466,333.94946839999466,,,,,,,,,,,,,,,,,,,,,,,,,,robson,001,2023-01-28_17h04.32.129,aula_047,2022.2.1,60.53375028609759,
cheese,queijo,,,,,0,0,0,0,0,28,28,36,,,,,,,,,,,,,,,,,,,338.9336629999889,338.9336629999889,,,,,,,,,,,,,,,,,,,,,,,,,,robson,001,2023-01-28_17h04.32.129,aula_047,2022.2.1,60.53375028609759,
boat,barco,,,,,0,0,0,0,0,29,29,19,,,,,,,,,,,,,,,,,,,343.9332655999897,343.9332655999897,,,,,,,,,,,,,,,,,,,,,,,,,,robson,001,2023-01-28_17h04.32.129,aula_047,2022.2.1,60.53375028609759,
crab,caranguejo,,,,,0,0,0,0,0,30,30,10,,,,,,,,,,,,,,,,,,,348.9330551999883,348.9330551999883,,,,,,,,,,,,,,,,,,,,,,,,,,robson,001,2023-01-28_17h04.32.129,aula_047,2022.2.1,60.53375028609759,
horse,cavalo,,,,,0,0,0,0,0,31,31,11,,,,,,,,,,,,,,,,,,,353.93189539999,353.93189539999,,,,,,,,,,,,,,,,,,,,,,,,,,robson,001,2023-01-28_17h04.32.129,aula_047,2022.2.1,60.53375028609759,
knee,joelho,,,,,0,0,0,0,0,32,32,2,,,,,,,,,,,,,,,,,,,358.9318643000006,358.9318643000006,,,,,,,,,,,,,,,,,,,,,,,,,,robson,001,2023-01-28_17h04.32.129,aula_047,2022.2.1,60.53375028609759,
sleep,sono,,,,,0,0,0,0,0,33,33,21,,,,,,,,,,,,,,,,,,,363.9341321999964,363.9341321999964,,,,,,,,,,,,,,,,,,,,,,,,,,robson,001,2023-01-28_17h04.32.129,aula_047,2022.2.1,60.53375028609759,
broom,vassoura,,,,,0,0,0,0,0,34,34,5,,,,,,,,,,,,,,,,,,,368.9321539999946,368.9321539999946,,,,,,,,,,,,,,,,,,,,,,,,,,robson,001,2023-01-28_17h04.32.129,aula_047,2022.2.1,60.53375028609759,
manure,estrume,,,,,0,0,0,0,0,35,35,25,,,,,,,,,,,,,,,,,,,373.9322034999932,373.9322034999932,,,,,,,,,,,,,,,,,,,,,,,,,,robson,001,2023-01-28_17h04.32.129,aula_047,2022.2.1,60.53375028609759,
soul,alma,,,,,0,0,0,0,0,36,36,8,,,,,,,,,,,,,,,,,,,378.931831599999,378.931831599999,,,,,,,,,,,,,,,,,,,,,,,,,,robson,001,2023-01-28_17h04.32.129,aula_047,2022.2.1,60.53375028609759,
bucket,balde,,,,,0,0,0,0,0,37,37,6,,,,,,,,,,,,,,,,,,,383.93143079998845,383.93143079998845,,,,,,,,,,,,,,,,,,,,,,,,,,robson,001,2023-01-28_17h04.32.129,aula_047,2022.2.1,60.53375028609759,
trench,trincheira,,,,,0,0,0,0,0,38,38,32,,,,,,,,,,,,,,,,,,,388.931476999991,388.931476999991,,,,,,,,,,,,,,,,,,,,,,,,,,robson,001,2023-01-28_17h04.32.129,aula_047,2022.2.1,60.53375028609759,
frog,sapo,,,,,0,0,0,0,0,39,39,27,,,,,,,,,,,,,,,,,,,393.93098189999,393.93098189999,,,,,,,,,,,,,,,,,,,,,,,,,,robson,001,2023-01-28_17h04.32.129,aula_047,2022.2.1,60.53375028609759,
,,,,,,0,0,0,0,,,,,0,0,0,0,,,,,,,,,,,,,,,,,,,398.96276149999176,399.4144151999935,399.4144151999935,399.4144151999935,6,18,108,108,"['num_1', 'num_0', 'num_8', 'return']","[117450.3910101, 117450.5693539, 117450.8189921, 117451.101081]",1,,,,,,,,,,,,,robson,001,2023-01-28_17h04.32.129,aula_047,2022.2.1,60.53375028609759,
,,,,,,0,0,0,0,,,,,1,0,1,0,,,,,,,,,,,,,,,,,,,405.43042330000026,405.9148429999914,405.9148429999914,405.9148429999914,9,7,63,63,"['num_6', 'num_3', 'return']","[117452.4015719, 117452.5968472, 117452.7469625]",1,,,,,,,,,,,,,robson,001,2023-01-28_17h04.32.129,aula_047,2022.2.1,60.53375028609759,
,,,,,,0,0,0,0,,,,,2,0,2,0,,,,,,,,,,,,,,,,,,,407.0637992999982,407.5634112999978,407.5634112999978,407.5634112999978,17,10,170,170,"['num_1', 'num_7', 'num_0', 'return']","[117453.9804127, 117454.1472703, 117454.3639543, 117454.4974982]",1,,,,,,,,,,,,,robson,001,2023-01-28_17h04.32.129,aula_047,2022.2.1,60.53375028609759,
,,,,,,0,0,0,0,,,,,3,0,3,0,,,,,,,,,,,,,,,,,,,408.8135345999908,409.3144079999911,409.3144079999911,409.3144079999911,2,2,4,4,"['num_4', 'return']","[117455.6850683, 117455.8464593]",1,,,,,,,,,,,,,robson,001,2023-01-28_17h04.32.129,aula_047,2022.2.1,60.53375028609759,
,,,,,,0,0,0,0,,,,,4,0,4,0,,,,,,,,,,,,,,,,,,,410.1637239999982,410.6467956999986,410.6467956999986,410.6467956999986,9,7,63,63,"['num_6', 'num_3', 'return']","[117457.0641776, 117457.2464743, 117457.3970505]",1,,,,,,,,,,,,,robson,001,2023-01-28_17h04.32.129,aula_047,2022.2.1,60.53375028609759,
,,,,,,0,0,0,0,,,,,5,0,5,0,,,,,,,,,,,,,,,,,,,411.71416269999463,412.21336670000164,412.21336670000164,412.21336670000164,16,10,160,160,"['num_6', 'backspace', 'num_2', 'backspace', 'num_1', 'num_6', 'num_0', 'return']","[117458.6787188, 117459.5132218, 117460.1203358, 117461.2470535, 117461.3474963, 117461.4621967, 117461.6140279, 117461.7951695]",1,,,,,,,,,,,,,robson,001,2023-01-28_17h04.32.129,aula_047,2022.2.1,60.53375028609759,
,,,,,,0,0,0,0,,,,,6,0,6,0,,,,,,,,,,,,,,,,,,,416.11423609999474,416.5967251999973,416.5967251999973,416.5967251999973,4,17,68,68,"['num_6', 'num_8', 'return']","[117465.5963311, 117465.8283315, 117466.0453174]",1,,,,,,,,,,,,,robson,001,2023-01-28_17h04.32.129,aula_047,2022.2.1,60.53375028609759,
,,,,,,0,0,0,0,,,,,7,0,7,0,,,,,,,,,,,,,,,,,,,420.36339939999743,420.84641759999795,420.84641759999795,420.84641759999795,10,13,130,130,"['num_1', 'num_3', 'num_0', 'return']","[117467.180294, 117467.2960427, 117467.4622393, 117467.5968262]",1,,,,,,,,,,,,,robson,001,2023-01-28_17h04.32.129,aula_047,2022.2.1,60.53375028609759,
,,,,,,0,0,0,0,,,,,8,0,8,0,,,,,,,,,,,,,,,,,,,421.9135699999897,422.41329099998984,422.41329099998984,422.41329099998984,3,9,27,27,"['num_2', 'num_7', 'return']","[117468.9949917, 117469.2288833, 117469.3953826]",1,,,,,,,,,,,,,robson,001,2023-01-28_17h04.32.129,aula_047,2022.2.1,60.53375028609759,
,,,,,,0,0,0,0,,,,,9,0,9,0,,,,,,,,,,,,,,,,,,,423.72828070000105,424.21329049998894,424.21329049998894,424.21329049998894,2,7,14,14,"['num_1', 'num_4', 'return']","[117470.7642642, 117470.9312612, 117471.09575]",1,,,,,,,,,,,,,robson,001,2023-01-28_17h04.32.129,aula_047,2022.2.1,60.53375028609759,
,,,,,,0,0,0,0,,,,,10,0,10,0,,,,,,,,,,,,,,,,,,,425.41274699999485,425.9135946999886,425.9135946999886,425.9135946999886,3,4,12,12,"['num_1', 'num_2', 'return']","[117472.2630521, 117472.3463121, 117472.5112609]",1,,,,,,,,,,,,,robson,001,2023-01-28_17h04.32.129,aula_047,2022.2.1,60.53375028609759,
,,,,,,0,0,0,0,,,,,11,0,11,0,,,,,,,,,,,,,,,,,,,426.83019459999923,427.3130678000016,427.3130678000016,427.3130678000016,7,20,140,140,"['num_1', 'num_4', 'num_0', 'return']","[117473.7461648, 117473.9462163, 117474.1466529, 117474.3126912]",1,,,,,,,,,,,,,robson,001,2023-01-28_17h04.32.129,aula_047,2022.2.1,60.53375028609759,
,,,,,,0,0,0,0,,,,,12,0,12,0,,,,,,,,,,,,,,,,,,,428.63031349999073,,,,3,4,12,,[],[],0,,,,,,,,,,,,,robson,001,2023-01-28_17h04.32.129,aula_047,2022.2.1,60.53375028609759,
broom,vassoura,,,,,0,0,0,0,,,,,,,,,0,0,0,5,,,,,,,,,,,,,,,,,,,,,,,,,,428.94637720000173,428.94637720000173,431.8302979,431.8302979,1,SnT,vassoura,,,,,,robson,001,2023-01-28_17h04.32.129,aula_047,2022.2.1,60.53375028609759,
curtain,cortina,,,,,0,0,0,0,,,,,,,,,0,1,1,16,,,,,,,,,,,,,,,,,,,,,,,,,,,,439.82963129998825,439.82963129998825,1,SnT,cortina,,,,,,robson,001,2023-01-28_17h04.32.129,aula_047,2022.2.1,60.53375028609759,
trench,trincheira,,,,,0,0,0,0,,,,,,,,,0,2,2,32,,,,,,,,,,,,,,,,,,,,,,,,,,,,447.82831919999444,447.82831919999444,0,SnT,,,,,,,robson,001,2023-01-28_17h04.32.129,aula_047,2022.2.1,60.53375028609759,
flood,enchente,,,,,0,0,0,0,,,,,,,,,0,3,3,39,,,,,,,,,,,,,,,,,,,,,,,,,,,,455.82937209999363,455.82937209999363,1,SnT,enchente,,,,,,robson,001,2023-01-28_17h04.32.129,aula_047,2022.2.1,60.53375028609759,
bribe,propina,,,,,0,0,0,0,,,,,,,,,0,4,4,38,,,,,,,,,,,,,,,,,,,,,,,,,,,,463.8271464999998,463.8271464999998,0,SnT,,,,,,,robson,001,2023-01-28_17h04.32.129,aula_047,2022.2.1,60.53375028609759,
friend,amigo,,,,,0,0,0,0,,,,,,,,,0,5,5,18,,,,,,,,,,,,,,,,,,,,,,,,,,,,471.827338099989,471.827338099989,0,SnT,,,,,,,robson,001,2023-01-28_17h04.32.129,aula_047,2022.2.1,60.53375028609759,
leaf,folha,,,,,0,0,0,0,,,,,,,,,0,6,6,26,,,,,,,,,,,,,,,,,,,,,,,,,,,,479.8445178999973,479.8445178999973,0,SnT,,,,,,,robson,001,2023-01-28_17h04.32.129,aula_047,2022.2.1,60.53375028609759,
poison,veneno,,,,,0,0,0,0,,,,,,,,,0,7,7,7,,,,,,,,,,,,,,,,,,,,,,,,,,,,487.84343290000106,487.84343290000106,0,SnT,,,,,,,robson,001,2023-01-28_17h04.32.129,aula_047,2022.2.1,60.53375028609759,
snow,neve,,,,,0,0,0,0,,,,,,,,,0,8,8,17,,,,,,,,,,,,,,,,,,,,,,,,,,,,495.8267657999968,495.8267657999968,0,SnT,,,,,,,robson,001,2023-01-28_17h04.32.129,aula_047,2022.2.1,60.53375028609759,
bone,osso,,,,,0,0,0,0,,,,,,,,,0,9,9,33,,,,,,,,,,,,,,,,,,,,,,,,,,,,503.82599499999196,503.82599499999196,0,SnT,,,,,,,robson,001,2023-01-28_17h04.32.129,aula_047,2022.2.1,60.53375028609759,
knee,joelho,,,,,0,0,0,0,,,,,,,,,0,10,10,2,,,,,,,,,,,,,,,,,,,,,,,,,,,,511.8257215999911,511.8257215999911,0,SnT,,,,,,,robson,001,2023-01-28_17h04.32.129,aula_047,2022.2.1,60.53375028609759,
scarf,cachecol,,,,,0,0,0,0,,,,,,,,,0,11,11,12,,,,,,,,,,,,,,,,,,,,,,,,,,,,519.8413729000022,519.8413729000022,0,SnT,,,,,,,robson,001,2023-01-28_17h04.32.129,aula_047,2022.2.1,60.53375028609759,
carpet,tapete,,,,,0,0,0,0,,,,,,,,,0,12,12,15,,,,,,,,,,,,,,,,,,,,,,,,,,,,527.824964399988,527.824964399988,0,SnT,,,,,,,robson,001,2023-01-28_17h04.32.129,aula_047,2022.2.1,60.53375028609759,
plate,prato,,,,,0,0,0,0,,,,,,,,,0,13,13,34,,,,,,,,,,,,,,,,,,,,,,,,,,,,535.8244826000009,535.8244826000009,0,SnT,,,,,,,robson,001,2023-01-28_17h04.32.129,aula_047,2022.2.1,60.53375028609759,
donkey,burro,,,,,0,0,0,0,,,,,,,,,0,14,14,20,,,,,,,,,,,,,,,,,,,,,,,,,,,,543.8244239999913,543.8244239999913,0,SnT,,,,,,,robson,001,2023-01-28_17h04.32.129,aula_047,2022.2.1,60.53375028609759,
dog,cachorro,,,,,0,0,0,0,,,,,,,,,0,15,15,0,,,,,,,,,,,,,,,,,,,,,,,,,,,,551.8237381999934,551.8237381999934,0,SnT,,,,,,,robson,001,2023-01-28_17h04.32.129,aula_047,2022.2.1,60.53375028609759,
manure,estrume,,,,,0,0,0,0,,,,,,,,,0,16,16,25,,,,,,,,,,,,,,,,,,,,,,,,,,,,559.8232534999988,559.8232534999988,0,SnT,,,,,,,robson,001,2023-01-28_17h04.32.129,aula_047,2022.2.1,60.53375028609759,
parrot,papagaio,,,,,0,0,0,0,,,,,,,,,0,17,17,37,,,,,,,,,,,,,,,,,,,,,,,,,,,,567.8231747999962,567.8231747999962,0,SnT,,,,,,,robson,001,2023-01-28_17h04.32.129,aula_047,2022.2.1,60.53375028609759,
cloud,nuvem,,,,,0,0,0,0,,,,,,,,,0,18,18,1,,,,,,,,,,,,,,,,,,,,,,,,,,,,575.822577599989,575.822577599989,0,SnT,,,,,,,robson,001,2023-01-28_17h04.32.129,aula_047,2022.2.1,60.53375028609759,
horse,cavalo,,,,,0,0,0,0,,,,,,,,,0,19,19,11,,,,,,,,,,,,,,,,,,,,,,,,,,,,583.8224384999921,583.8224384999921,0,SnT,,,,,,,robson,001,2023-01-28_17h04.32.129,aula_047,2022.2.1,60.53375028609759,
frog,sapo,,,,,0,0,0,0,,,,,,,,,0,20,20,27,,,,,,,,,,,,,,,,,,,,,,,,,,,,591.821978699998,591.821978699998,0,SnT,,,,,,,robson,001,2023-01-28_17h04.32.129,aula_047,2022.2.1,60.53375028609759,
yeast,levedura,,,,,0,0,0,0,,,,,,,,,0,21,21,28,,,,,,,,,,,,,,,,,,,,,,,,,,,,599.8215557999938,599.8215557999938,0,SnT,,,,,,,robson,001,2023-01-28_17h04.32.129,aula_047,2022.2.1,60.53375028609759,
olives,azeitona,,,,,0,0,0,0,,,,,,,,,0,22,22,23,,,,,,,,,,,,,,,,,,,,,,,,,,,,607.8211364999879,607.8211364999879,0,SnT,,,,,,,robson,001,2023-01-28_17h04.32.129,aula_047,2022.2.1,60.53375028609759,
boat,barco,,,,,0,0,0,0,,,,,,,,,0,23,23,19,,,,,,,,,,,,,,,,,,,,,,,,,,,,615.8198909999919,615.8198909999919,0,SnT,,,,,,,robson,001,2023-01-28_17h04.32.129,aula_047,2022.2.1,60.53375028609759,
garden,jardim,,,,,0,0,0,0,,,,,,,,,0,24,24,24,,,,,,,,,,,,,,,,,,,,,,,,,,,,623.8194775000011,623.8194775000011,0,SnT,,,,,,,robson,001,2023-01-28_17h04.32.129,aula_047,2022.2.1,60.53375028609759,
cheese,queijo,,,,,0,0,0,0,,,,,,,,,0,25,25,36,,,,,,,,,,,,,,,,,,,,,,,,,,,,631.835029599999,631.835029599999,0,SnT,,,,,,,robson,001,2023-01-28_17h04.32.129,aula_047,2022.2.1,60.53375028609759,
sleep,sono,,,,,0,0,0,0,,,,,,,,,0,26,26,21,,,,,,,,,,,,,,,,,,,,,,,,,,,,639.8187176999927,639.8187176999927,0,SnT,,,,,,,robson,001,2023-01-28_17h04.32.129,aula_047,2022.2.1,60.53375028609759,
egg,ovo,,,,,0,0,0,0,,,,,,,,,0,27,27,3,,,,,,,,,,,,,,,,,,,,,,,,,,,,647.8183760999964,647.8183760999964,0,SnT,,,,,,,robson,001,2023-01-28_17h04.32.129,aula_047,2022.2.1,60.53375028609759,
glue,cola,,,,,0,0,0,0,,,,,,,,,0,28,28,30,,,,,,,,,,,,,,,,,,,,,,,,,,,,655.817821699995,655.817821699995,0,SnT,,,,,,,robson,001,2023-01-28_17h04.32.129,aula_047,2022.2.1,60.53375028609759,
lake,lago,,,,,0,0,0,0,,,,,,,,,0,29,29,22,,,,,,,,,,,,,,,,,,,,,,,,,,,,663.817300499999,663.817300499999,0,SnT,,,,,,,robson,001,2023-01-28_17h04.32.129,aula_047,2022.2.1,60.53375028609759,
bucket,balde,,,,,0,0,0,0,,,,,,,,,0,30,30,6,,,,,,,,,,,,,,,,,,,,,,,,,,,,671.8173226999934,671.8173226999934,0,SnT,,,,,,,robson,001,2023-01-28_17h04.32.129,aula_047,2022.2.1,60.53375028609759,
crab,caranguejo,,,,,0,0,0,0,,,,,,,,,0,31,31,10,,,,,,,,,,,,,,,,,,,,,,,,,,,,679.8167945999885,679.8167945999885,0,SnT,,,,,,,robson,001,2023-01-28_17h04.32.129,aula_047,2022.2.1,60.53375028609759,
queen,rainha,,,,,0,0,0,0,,,,,,,,,0,32,32,14,,,,,,,,,,,,,,,,,,,,,,,,,,,,687.8165059999883,687.8165059999883,0,SnT,,,,,,,robson,001,2023-01-28_17h04.32.129,aula_047,2022.2.1,60.53375028609759,
dust,poeira,,,,,0,0,0,0,,,,,,,,,0,33,33,29,,,,,,,,,,,,,,,,,,,,,,,,,,,,695.8157976999937,695.8157976999937,0,SnT,,,,,,,robson,001,2023-01-28_17h04.32.129,aula_047,2022.2.1,60.53375028609759,
wheel,roda,,,,,0,0,0,0,,,,,,,,,0,34,34,31,,,,,,,,,,,,,,,,,,,,,,,,,,,,703.815772899994,703.815772899994,0,SnT,,,,,,,robson,001,2023-01-28_17h04.32.129,aula_047,2022.2.1,60.53375028609759,
silk,seda,,,,,0,0,0,0,,,,,,,,,0,35,35,13,,,,,,,,,,,,,,,,,,,,,,,,,,,,711.8153237999941,711.8153237999941,0,SnT,,,,,,,robson,001,2023-01-28_17h04.32.129,aula_047,2022.2.1,60.53375028609759,
beer,cerveja,,,,,0,0,0,0,,,,,,,,,0,36,36,4,,,,,,,,,,,,,,,,,,,,,,,,,,,,719.8150244999997,719.8150244999997,0,SnT,,,,,,,robson,001,2023-01-28_17h04.32.129,aula_047,2022.2.1,60.53375028609759,
trouble,problema,,,,,0,0,0,0,,,,,,,,,0,37,37,35,,,,,,,,,,,,,,,,,,,,,,,,,,,,727.8143301999953,727.8143301999953,0,SnT,,,,,,,robson,001,2023-01-28_17h04.32.129,aula_047,2022.2.1,60.53375028609759,
food,comida,,,,,0,0,0,0,,,,,,,,,0,38,38,9,,,,,,,,,,,,,,,,,,,,,,,,,,,,735.8138958999916,735.8138958999916,0,SnT,,,,,,,robson,001,2023-01-28_17h04.32.129,aula_047,2022.2.1,60.53375028609759,
soul,alma,,,,,0,0,0,0,,,,,,,,,0,39,39,8,,,,,,,,,,,,,,,,,,,,,,,,,,,,743.8304414000013,743.8304414000013,0,SnT,,,,,,,robson,001,2023-01-28_17h04.32.129,aula_047,2022.2.1,60.53375028609759,
cloud,nuvem,,,,,1,0,1,0,0,0,0,15,,,,,,,,,,,,,,,,,,,751.8291748999909,751.8291748999909,,,,,,,,,,,,,,,,,,,,,,,,,,robson,001,2023-01-28_17h04.32.129,aula_047,2022.2.1,60.53375028609759,
boat,barco,,,,,1,0,1,0,0,1,1,20,,,,,,,,,,,,,,,,,,,756.8296010999911,756.8296010999911,,,,,,,,,,,,,,,,,,,,,,,,,,robson,001,2023-01-28_17h04.32.129,aula_047,2022.2.1,60.53375028609759,
friend,amigo,,,,,1,0,1,0,0,2,2,2,,,,,,,,,,,,,,,,,,,761.8295979999966,761.8295979999966,,,,,,,,,,,,,,,,,,,,,,,,,,robson,001,2023-01-28_17h04.32.129,aula_047,2022.2.1,60.53375028609759,
sleep,sono,,,,,1,0,1,0,0,3,3,23,,,,,,,,,,,,,,,,,,,766.8294890999969,766.8294890999969,,,,,,,,,,,,,,,,,,,,,,,,,,robson,001,2023-01-28_17h04.32.129,aula_047,2022.2.1,60.53375028609759,
donkey,burro,,,,,1,0,1,0,0,4,4,11,,,,,,,,,,,,,,,,,,,771.8291336999973,771.8291336999973,,,,,,,,,,,,,,,,,,,,,,,,,,robson,001,2023-01-28_17h04.32.129,aula_047,2022.2.1,60.53375028609759,
snow,neve,,,,,1,0,1,0,0,5,5,5,,,,,,,,,,,,,,,,,,,776.8286528999888,776.8286528999888,,,,,,,,,,,,,,,,,,,,,,,,,,robson,001,2023-01-28_17h04.32.129,aula_047,2022.2.1,60.53375028609759,
leaf,folha,,,,,1,0,1,0,0,6,6,3,,,,,,,,,,,,,,,,,,,781.8288482999924,781.8288482999924,,,,,,,,,,,,,,,,,,,,,,,,,,robson,001,2023-01-28_17h04.32.129,aula_047,2022.2.1,60.53375028609759,
garden,jardim,,,,,1,0,1,0,0,7,7,21,,,,,,,,,,,,,,,,,,,786.8284657999902,786.8284657999902,,,,,,,,,,,,,,,,,,,,,,,,,,robson,001,2023-01-28_17h04.32.129,aula_047,2022.2.1,60.53375028609759,
wheel,roda,,,,,1,0,1,0,0,8,8,31,,,,,,,,,,,,,,,,,,,791.828199399999,791.828199399999,,,,,,,,,,,,,,,,,,,,,,,,,,robson,001,2023-01-28_17h04.32.129,aula_047,2022.2.1,60.53375028609759,
bone,osso,,,,,1,0,1,0,0,9,9,6,,,,,,,,,,,,,,,,,,,796.8280189999932,796.8280189999932,,,,,,,,,,,,,,,,,,,,,,,,,,robson,001,2023-01-28_17h04.32.129,aula_047,2022.2.1,60.53375028609759,
soul,alma,,,,,1,0,1,0,0,10,10,36,,,,,,,,,,,,,,,,,,,801.8273164999991,801.8273164999991,,,,,,,,,,,,,,,,,,,,,,,,,,robson,001,2023-01-28_17h04.32.129,aula_047,2022.2.1,60.53375028609759,
bribe,propina,,,,,1,0,1,0,0,11,11,1,,,,,,,,,,,,,,,,,,,806.8271537999972,806.8271537999972,,,,,,,,,,,,,,,,,,,,,,,,,,robson,001,2023-01-28_17h04.32.129,aula_047,2022.2.1,60.53375028609759,
poison,veneno,,,,,1,0,1,0,0,12,12,4,,,,,,,,,,,,,,,,,,,811.827029299995,811.827029299995,,,,,,,,,,,,,,,,,,,,,,,,,,robson,001,2023-01-28_17h04.32.129,aula_047,2022.2.1,60.53375028609759,
lake,lago,,,,,1,0,1,0,0,13,13,26,,,,,,,,,,,,,,,,,,,816.826722599988,816.826722599988,,,,,,,,,,,,,,,,,,,,,,,,,,robson,001,2023-01-28_17h04.32.129,aula_047,2022.2.1,60.53375028609759,
parrot,papagaio,,,,,1,0,1,0,0,14,14,14,,,,,,,,,,,,,,,,,,,821.826810300001,821.826810300001,,,,,,,,,,,,,,,,,,,,,,,,,,robson,001,2023-01-28_17h04.32.129,aula_047,2022.2.1,60.53375028609759,
yeast,levedura,,,,,1,0,1,0,0,15,15,18,,,,,,,,,,,,,,,,,,,826.8262053999933,826.8262053999933,,,,,,,,,,,,,,,,,,,,,,,,,,robson,001,2023-01-28_17h04.32.129,aula_047,2022.2.1,60.53375028609759,
egg,ovo,,,,,1,0,1,0,0,16,16,24,,,,,,,,,,,,,,,,,,,831.8260564999946,831.8260564999946,,,,,,,,,,,,,,,,,,,,,,,,,,robson,001,2023-01-28_17h04.32.129,aula_047,2022.2.1,60.53375028609759,
queen,rainha,,,,,1,0,1,0,0,17,17,29,,,,,,,,,,,,,,,,,,,836.8261226999894,836.8261226999894,,,,,,,,,,,,,,,,,,,,,,,,,,robson,001,2023-01-28_17h04.32.129,aula_047,2022.2.1,60.53375028609759,
cheese,queijo,,,,,1,0,1,0,0,18,18,22,,,,,,,,,,,,,,,,,,,841.8255778000021,841.8255778000021,,,,,,,,,,,,,,,,,,,,,,,,,,robson,001,2023-01-28_17h04.32.129,aula_047,2022.2.1,60.53375028609759,
dog,cachorro,,,,,1,0,1,0,0,19,19,12,,,,,,,,,,,,,,,,,,,846.8255531999894,846.8255531999894,,,,,,,,,,,,,,,,,,,,,,,,,,robson,001,2023-01-28_17h04.32.129,aula_047,2022.2.1,60.53375028609759,
olives,azeitona,,,,,1,0,1,0,0,20,20,19,,,,,,,,,,,,,,,,,,,851.8250579000014,851.8250579000014,,,,,,,,,,,,,,,,,,,,,,,,,,robson,001,2023-01-28_17h04.32.129,aula_047,2022.2.1,60.53375028609759,
manure,estrume,,,,,1,0,1,0,0,21,21,13,,,,,,,,,,,,,,,,,,,856.8248812999955,856.8248812999955,,,,,,,,,,,,,,,,,,,,,,,,,,robson,001,2023-01-28_17h04.32.129,aula_047,2022.2.1,60.53375028609759,
bucket,balde,,,,,1,0,1,0,0,22,22,27,,,,,,,,,,,,,,,,,,,861.8250332999887,861.8250332999887,,,,,,,,,,,,,,,,,,,,,,,,,,robson,001,2023-01-28_17h04.32.129,aula_047,2022.2.1,60.53375028609759,
trench,trincheira,,,,,1,0,1,0,0,23,23,0,,,,,,,,,,,,,,,,,,,866.8243825999962,866.8243825999962,,,,,,,,,,,,,,,,,,,,,,,,,,robson,001,2023-01-28_17h04.32.129,aula_047,2022.2.1,60.53375028609759,
dust,poeira,,,,,1,0,1,0,0,24,24,30,,,,,,,,,,,,,,,,,,,871.8241014999949,871.8241014999949,,,,,,,,,,,,,,,,,,,,,,,,,,robson,001,2023-01-28_17h04.32.129,aula_047,2022.2.1,60.53375028609759,
food,comida,,,,,1,0,1,0,0,25,25,35,,,,,,,,,,,,,,,,,,,876.8234689999954,876.8234689999954,,,,,,,,,,,,,,,,,,,,,,,,,,robson,001,2023-01-28_17h04.32.129,aula_047,2022.2.1,60.53375028609759,
knee,joelho,,,,,1,0,1,0,0,26,26,7,,,,,,,,,,,,,,,,,,,881.8265042999992,881.8265042999992,,,,,,,,,,,,,,,,,,,,,,,,,,robson,001,2023-01-28_17h04.32.129,aula_047,2022.2.1,60.53375028609759,
beer,cerveja,,,,,1,0,1,0,0,27,27,33,,,,,,,,,,,,,,,,,,,886.8417700999998,886.8417700999998,,,,,,,,,,,,,,,,,,,,,,,,,,robson,001,2023-01-28_17h04.32.129,aula_047,2022.2.1,60.53375028609759,
frog,sapo,,,,,1,0,1,0,0,28,28,17,,,,,,,,,,,,,,,,,,,891.8409422999976,891.8409422999976,,,,,,,,,,,,,,,,,,,,,,,,,,robson,001,2023-01-28_17h04.32.129,aula_047,2022.2.1,60.53375028609759,
crab,caranguejo,,,,,1,0,1,0,0,29,29,28,,,,,,,,,,,,,,,,,,,896.8390307999944,896.8390307999944,,,,,,,,,,,,,,,,,,,,,,,,,,robson,001,2023-01-28_17h04.32.129,aula_047,2022.2.1,60.53375028609759,
glue,cola,,,,,1,0,1,0,0,30,30,25,,,,,,,,,,,,,,,,,,,901.8407279999956,901.8407279999956,,,,,,,,,,,,,,,,,,,,,,,,,,robson,001,2023-01-28_17h04.32.129,aula_047,2022.2.1,60.53375028609759,
silk,seda,,,,,1,0,1,0,0,31,31,32,,,,,,,,,,,,,,,,,,,906.8219601000019,906.8219601000019,,,,,,,,,,,,,,,,,,,,,,,,,,robson,001,2023-01-28_17h04.32.129,aula_047,2022.2.1,60.53375028609759,
horse,cavalo,,,,,1,0,1,0,0,32,32,16,,,,,,,,,,,,,,,,,,,911.8393873999885,911.8393873999885,,,,,,,,,,,,,,,,,,,,,,,,,,robson,001,2023-01-28_17h04.32.129,aula_047,2022.2.1,60.53375028609759,
carpet,tapete,,,,,1,0,1,0,0,33,33,9,,,,,,,,,,,,,,,,,,,916.8394208999962,916.8394208999962,,,,,,,,,,,,,,,,,,,,,,,,,,robson,001,2023-01-28_17h04.32.129,aula_047,2022.2.1,60.53375028609759,
plate,prato,,,,,1,0,1,0,0,34,34,10,,,,,,,,,,,,,,,,,,,921.841505999997,921.841505999997,,,,,,,,,,,,,,,,,,,,,,,,,,robson,001,2023-01-28_17h04.32.129,aula_047,2022.2.1,60.53375028609759,
trouble,problema,,,,,1,0,1,0,0,35,35,34,,,,,,,,,,,,,,,,,,,926.823905600002,926.823905600002,,,,,,,,,,,,,,,,,,,,,,,,,,robson,001,2023-01-28_17h04.32.129,aula_047,2022.2.1,60.53375028609759,
scarf,cachecol,,,,,1,0,1,0,0,36,36,8,,,,,,,,,,,,,,,,,,,931.840392500002,931.840392500002,,,,,,,,,,,,,,,,,,,,,,,,,,robson,001,2023-01-28_17h04.32.129,aula_047,2022.2.1,60.53375028609759,
,,,,,,1,0,1,0,,,,,0,0,0,0,,,,,,,,,,,,,,,,,,,936.8540080999956,,,,12,8,96,,['space'],[117982.5438446],0,,,,,,,,,,,,,robson,001,2023-01-28_17h04.32.129,aula_047,2022.2.1,60.53375028609759,
horse,cavalo,,,,,1,0,1,0,,,,,,,,,0,0,0,11,,,,,,,,,,,,,,,,,,,,,,,,,,936.8540080999956,936.8540080999956,940.5036083000014,940.5036083000014,1,SnT,cavalo,,,,,,robson,001,2023-01-28_17h04.32.129,aula_047,2022.2.1,60.53375028609759,
olives,azeitona,,,,,1,0,1,0,,,,,,,,,0,1,1,23,,,,,,,,,,,,,,,,,,,,,,,,,,,,948.5214753999899,948.5214753999899,1,SnT,azeitona,,,,,,robson,001,2023-01-28_17h04.32.129,aula_047,2022.2.1,60.53375028609759,
bucket,balde,,,,,1,0,1,0,,,,,,,,,0,2,2,6,,,,,,,,,,,,,,,,,,,,,,,,,,,,956.5202226999972,956.5202226999972,1,SnT,balde,,,,,,robson,001,2023-01-28_17h04.32.129,aula_047,2022.2.1,60.53375028609759,
curtain,cortina,,,,,1,0,1,0,,,,,,,,,0,3,3,16,,,,,,,,,,,,,,,,,,,,,,,,,,,,964.5203214999929,964.5203214999929,1,SnT,cortina,,,,,,robson,001,2023-01-28_17h04.32.129,aula_047,2022.2.1,60.53375028609759,
beer,cerveja,,,,,1,0,1,0,,,,,,,,,0,4,4,4,,,,,,,,,,,,,,,,,,,,,,,,,,,,972.5037239999947,972.5037239999947,1,SnT,cerveja,,,,,,robson,001,2023-01-28_17h04.32.129,aula_047,2022.2.1,60.53375028609759,
yeast,levedura,,,,,1,0,1,0,,,,,,,,,0,5,5,28,,,,,,,,,,,,,,,,,,,,,,,,,,,,980.5191766999924,980.5191766999924,0,SnT,,,,,,,robson,001,2023-01-28_17h04.32.129,aula_047,2022.2.1,60.53375028609759,
sleep,sono,,,,,1,0,1,0,,,,,,,,,0,6,6,21,,,,,,,,,,,,,,,,,,,,,,,,,,,,988.5020086000004,988.5020086000004,0,SnT,son,,,,,,robson,001,2023-01-28_17h04.32.129,aula_047,2022.2.1,60.53375028609759,
food,comida,,,,,1,0,1,0,,,,,,,,,0,7,7,9,,,,,,,,,,,,,,,,,,,,,,,,,,,,996.5024399999966,996.5024399999966,1,SnT,comida,,,,,,robson,001,2023-01-28_17h04.32.129,aula_047,2022.2.1,60.53375028609759,
trouble,problema,,,,,1,0,1,0,,,,,,,,,0,8,8,35,,,,,,,,,,,,,,,,,,,,,,,,,,,,1004.5185640999989,1004.5185640999989,0,SnT,,,,,,,robson,001,2023-01-28_17h04.32.129,aula_047,2022.2.1,60.53375028609759,
bribe,propina,,,,,1,0,1,0,,,,,,,,,0,9,9,38,,,,,,,,,,,,,,,,,,,,,,,,,,,,1012.5030635000003,1012.5030635000003,0,SnT,,,,,,,robson,001,2023-01-28_17h04.32.129,aula_047,2022.2.1,60.53375028609759,
cloud,nuvem,,,,,1,0,1,0,,,,,,,,,0,10,10,1,,,,,,,,,,,,,,,,,,,,,,,,,,,,1020.5021022000001,1020.5021022000001,0,SnT,,,,,,,robson,001,2023-01-28_17h04.32.129,aula_047,2022.2.1,60.53375028609759,
parrot,papagaio,,,,,1,0,1,0,,,,,,,,,0,11,11,37,,,,,,,,,,,,,,,,,,,,,,,,,,,,1028.5009575000004,1028.5009575000004,0,SnT,,,,,,,robson,001,2023-01-28_17h04.32.129,aula_047,2022.2.1,60.53375028609759,
poison,veneno,,,,,1,0,1,0,,,,,,,,,0,12,12,7,,,,,,,,,,,,,,,,,,,,,,,,,,,,1036.5157936999894,1036.5157936999894,0,SnT,,,,,,,robson,001,2023-01-28_17h04.32.129,aula_047,2022.2.1,60.53375028609759,
boat,barco,,,,,1,0,1,0,,,,,,,,,0,13,13,19,,,,,,,,,,,,,,,,,,,,,,,,,,,,1044.5003115,1044.5003115,0,SnT,,,,,,,robson,001,2023-01-28_17h04.32.129,aula_047,2022.2.1,60.53375028609759,
garden,jardim,,,,,1,0,1,0,,,,,,,,,0,14,14,24,,,,,,,,,,,,,,,,,,,,,,,,,,,,1052.4998789999954,1052.4998789999954,0,SnT,,,,,,,robson,001,2023-01-28_17h04.32.129,aula_047,2022.2.1,60.53375028609759,
cheese,queijo,,,,,1,0,1,0,,,,,,,,,0,15,15,36,,,,,,,,,,,,,,,,,,,,,,,,,,,,1060.514841799988,1060.514841799988,0,SnT,,,,,,,robson,001,2023-01-28_17h04.32.129,aula_047,2022.2.1,60.53375028609759,
donkey,burro,,,,,1,0,1,0,,,,,,,,,0,16,16,20,,,,,,,,,,,,,,,,,,,,,,,,,,,,1068.4992029999994,1068.4992029999994,0,SnT,,,,,,,robson,001,2023-01-28_17h04.32.129,aula_047,2022.2.1,60.53375028609759,
manure,estrume,,,,,1,0,1,0,,,,,,,,,0,17,17,25,,,,,,,,,,,,,,,,,,,,,,,,,,,,1076.4989096999925,1076.4989096999925,0,SnT,,,,,,,robson,001,2023-01-28_17h04.32.129,aula_047,2022.2.1,60.53375028609759,
leaf,folha,,,,,1,0,1,0,,,,,,,,,0,18,18,26,,,,,,,,,,,,,,,,,,,,,,,,,,,,1084.4985562999937,1084.4985562999937,0,SnT,,,,,,,robson,001,2023-01-28_17h04.32.129,aula_047,2022.2.1,60.53375028609759,
lake,lago,,,,,1,0,1,0,,,,,,,,,0,19,19,22,,,,,,,,,,,,,,,,,,,,,,,,,,,,1092.4984219999897,1092.4984219999897,0,SnT,,,,,,,robson,001,2023-01-28_17h04.32.129,aula_047,2022.2.1,60.53375028609759,
dust,poeira,,,,,1,0,1,0,,,,,,,,,0,20,20,29,,,,,,,,,,,,,,,,,,,,,,,,,,,,1100.4976733999938,1100.4976733999938,0,SnT,,,,,,,robson,001,2023-01-28_17h04.32.129,aula_047,2022.2.1,60.53375028609759,
egg,ovo,,,,,1,0,1,0,,,,,,,,,0,21,21,3,,,,,,,,,,,,,,,,,,,,,,,,,,,,1108.4975577000005,1108.4975577000005,1,SnT,ovo,,,,,,robson,001,2023-01-28_17h04.32.129,aula_047,2022.2.1,60.53375028609759,
trench,trincheira,,,,,1,0,1,0,,,,,,,,,0,22,22,32,,,,,,,,,,,,,,,,,,,,,,,,,,,,1116.4968623000022,1116.4968623000022,0,SnT,,,,,,,robson,001,2023-01-28_17h04.32.129,aula_047,2022.2.1,60.53375028609759,
queen,rainha,,,,,1,0,1,0,,,,,,,,,0,23,23,14,,,,,,,,,,,,,,,,,,,,,,,,,,,,1124.5128104999894,1124.5128104999894,1,SnT,rainha,,,,,,robson,001,2023-01-28_17h04.32.129,aula_047,2022.2.1,60.53375028609759,
wheel,roda,,,,,1,0,1,0,,,,,,,,,0,24,24,31,,,,,,,,,,,,,,,,,,,,,,,,,,,,1132.5115751999983,1132.5115751999983,1,SnT,roda,,,,,,robson,001,2023-01-28_17h04.32.129,aula_047,2022.2.1,60.53375028609759,
flood,enchente,,,,,1,0,1,0,,,,,,,,,0,25,25,39,,,,,,,,,,,,,,,,,,,,,,,,,,,,1140.4967442999914,1140.4967442999914,0,SnT,,,,,,,robson,001,2023-01-28_17h04.32.129,aula_047,2022.2.1,60.53375028609759,
plate,prato,,,,,1,0,1,0,,,,,,,,,0,26,26,34,,,,,,,,,,,,,,,,,,,,,,,,,,,,1148.4938522000011,1148.4938522000011,0,SnT,,,,,,,robson,001,2023-01-28_17h04.32.129,aula_047,2022.2.1,60.53375028609759,
friend,amigo,,,,,1,0,1,0,,,,,,,,,0,27,27,18,,,,,,,,,,,,,,,,,,,,,,,,,,,,1156.5098610999994,1156.5098610999994,1,SnT,amigo,,,,,,robson,001,2023-01-28_17h04.32.129,aula_047,2022.2.1,60.53375028609759,
glue,cola,,,,,1,0,1,0,,,,,,,,,0,28,28,30,,,,,,,,,,,,,,,,,,,,,,,,,,,,1164.4945208999998,1164.4945208999998,0,SnT,,,,,,,robson,001,2023-01-28_17h04.32.129,aula_047,2022.2.1,60.53375028609759,
scarf,cachecol,,,,,1,0,1,0,,,,,,,,,0,29,29,12,,,,,,,,,,,,,,,,,,,,,,,,,,,,1172.5092895999987,1172.5092895999987,0,SnT,,,,,,,robson,001,2023-01-28_17h04.32.129,aula_047,2022.2.1,60.53375028609759,
soul,alma,,,,,1,0,1,0,,,,,,,,,0,30,30,8,,,,,,,,,,,,,,,,,,,,,,,,,,,,1180.4923178999888,1180.4923178999888,1,SnT,alma,,,,,,robson,001,2023-01-28_17h04.32.129,aula_047,2022.2.1,60.53375028609759,
dog,cachorro,,,,,1,0,1,0,,,,,,,,,0,31,31,0,,,,,,,,,,,,,,,,,,,,,,,,,,,,1188.4925593999942,1188.4925593999942,0,SnT,,,,,,,robson,001,2023-01-28_17h04.32.129,aula_047,2022.2.1,60.53375028609759,
carpet,tapete,,,,,1,0,1,0,,,,,,,,,0,32,32,15,,,,,,,,,,,,,,,,,,,,,,,,,,,,1196.492685899997,1196.492685899997,0,SnT,,,,,,,robson,001,2023-01-28_17h04.32.129,aula_047,2022.2.1,60.53375028609759,
knee,joelho,,,,,1,0,1,0,,,,,,,,,0,33,33,2,,,,,,,,,,,,,,,,,,,,,,,,,,,,1204.4921292999934,1204.4921292999934,0,SnT,,,,,,,robson,001,2023-01-28_17h04.32.129,aula_047,2022.2.1,60.53375028609759,
crab,caranguejo,,,,,1,0,1,0,,,,,,,,,0,34,34,10,,,,,,,,,,,,,,,,,,,,,,,,,,,,1212.491769699991,1212.491769699991,0,SnT,,,,,,,robson,001,2023-01-28_17h04.32.129,aula_047,2022.2.1,60.53375028609759,
broom,vassoura,,,,,1,0,1,0,,,,,,,,,0,35,35,5,,,,,,,,,,,,,,,,,,,,,,,,,,,,1220.4911202999938,1220.4911202999938,0,SnT,,,,,,,robson,001,2023-01-28_17h04.32.129,aula_047,2022.2.1,60.53375028609759,
silk,seda,,,,,1,0,1,0,,,,,,,,,0,36,36,13,,,,,,,,,,,,,,,,,,,,,,,,,,,,1228.4905959999887,1228.4905959999887,0,SnT,,,,,,,robson,001,2023-01-28_17h04.32.129,aula_047,2022.2.1,60.53375028609759,
snow,neve,,,,,1,0,1,0,,,,,,,,,0,37,37,17,,,,,,,,,,,,,,,,,,,,,,,,,,,,1236.4906690999924,1236.4906690999924,0,SnT,,,,,,,robson,001,2023-01-28_17h04.32.129,aula_047,2022.2.1,60.53375028609759,
frog,sapo,,,,,1,0,1,0,,,,,,,,,0,38,38,27,,,,,,,,,,,,,,,,,,,,,,,,,,,,1244.4899624999962,1244.4899624999962,0,SnT,,,,,,,robson,001,2023-01-28_17h04.32.129,aula_047,2022.2.1,60.53375028609759,
bone,osso,,,,,1,0,1,0,,,,,,,,,0,39,39,33,,,,,,,,,,,,,,,,,,,,,,,,,,,,1252.4895449999894,1252.4895449999894,0,SnT,,,,,,,robson,001,2023-01-28_17h04.32.129,aula_047,2022.2.1,60.53375028609759,
lake,lago,,,,,2,0,2,0,0,0,0,13,,,,,,,,,,,,,,,,,,,1260.505110699989,1260.505110699989,,,,,,,,,,,,,,,,,,,,,,,,,,robson,001,2023-01-28_17h04.32.129,aula_047,2022.2.1,60.53375028609759,
carpet,tapete,,,,,2,0,2,0,0,1,1,20,,,,,,,,,,,,,,,,,,,1265.4889623999916,1265.4889623999916,1270.4885921999958,1270.4885921999958,,,,,,,,,,,,,,,,,,,,,,,,robson,001,2023-01-28_17h04.32.129,aula_047,2022.2.1,60.53375028609759,
garden,jardim,,,,,2,0,2,0,0,2,2,8,,,,,,,,,,,,,,,,,,,1270.4885921999958,1270.4885921999958,1275.4884404999902,1275.4884404999902,,,,,,,,,,,,,,,,,,,,,,,,robson,001,2023-01-28_17h04.32.129,aula_047,2022.2.1,60.53375028609759,
snow,neve,,,,,2,0,2,0,0,3,3,24,,,,,,,,,,,,,,,,,,,1275.4884404999902,1275.4884404999902,1280.4881946999958,1280.4881946999958,,,,,,,,,,,,,,,,,,,,,,,,robson,001,2023-01-28_17h04.32.129,aula_047,2022.2.1,60.53375028609759,
leaf,folha,,,,,2,0,2,0,0,4,4,12,,,,,,,,,,,,,,,,,,,1280.4881946999958,1280.4881946999958,1285.4878995999898,1285.4878995999898,,,,,,,,,,,,,,,,,,,,,,,,robson,001,2023-01-28_17h04.32.129,aula_047,2022.2.1,60.53375028609759,
dust,poeira,,,,,2,0,2,0,0,5,5,14,,,,,,,,,,,,,,,,,,,1285.4878995999898,1285.4878995999898,1290.4880051999935,1290.4880051999935,,,,,,,,,,,,,,,,,,,,,,,,robson,001,2023-01-28_17h04.32.129,aula_047,2022.2.1,60.53375028609759,
knee,joelho,,,,,2,0,2,0,0,6,6,21,,,,,,,,,,,,,,,,,,,1290.4880051999935,1290.4880051999935,1295.4881351999938,1295.4881351999938,,,,,,,,,,,,,,,,,,,,,,,,robson,001,2023-01-28_17h04.32.129,aula_047,2022.2.1,60.53375028609759,
cheese,queijo,,,,,2,0,2,0,0,7,7,9,,,,,,,,,,,,,,,,,,,1295.4881351999938,1295.4881351999938,1300.5033950999932,1300.5033950999932,,,,,,,,,,,,,,,,,,,,,,,,robson,001,2023-01-28_17h04.32.129,aula_047,2022.2.1,60.53375028609759,
poison,veneno,,,,,2,0,2,0,0,8,8,6,,,,,,,,,,,,,,,,,,,1300.5033950999932,1300.5033950999932,,,,,,,,,,,,,,,,,,,,,,,,,,robson,001,2023-01-28_17h04.32.129,aula_047,2022.2.1,60.53375028609759,
plate,prato,,,,,2,0,2,0,0,9,9,16,,,,,,,,,,,,,,,,,,,1305.504354699995,1305.504354699995,,,,,,,,,,,,,,,,,,,,,,,,,,robson,001,2023-01-28_17h04.32.129,aula_047,2022.2.1,60.53375028609759,
glue,cola,,,,,2,0,2,0,0,10,10,17,,,,,,,,,,,,,,,,,,,1310.5034631000017,1310.5034631000017,,,,,,,,,,,,,,,,,,,,,,,,,,robson,001,2023-01-28_17h04.32.129,aula_047,2022.2.1,60.53375028609759,
boat,barco,,,,,2,0,2,0,0,11,11,7,,,,,,,,,,,,,,,,,,,1315.5031815999973,1315.5031815999973,,,,,,,,,,,,,,,,,,,,,,,,,,robson,001,2023-01-28_17h04.32.129,aula_047,2022.2.1,60.53375028609759,
silk,seda,,,,,2,0,2,0,0,12,12,23,,,,,,,,,,,,,,,,,,,1320.5028565999964,1320.5028565999964,,,,,,,,,,,,,,,,,,,,,,,,,,robson,001,2023-01-28_17h04.32.129,aula_047,2022.2.1,60.53375028609759,
bribe,propina,,,,,2,0,2,0,0,13,13,3,,,,,,,,,,,,,,,,,,,1325.5033289999992,1325.5033289999992,,,,,,,,,,,,,,,,,,,,,,,,,,robson,001,2023-01-28_17h04.32.129,aula_047,2022.2.1,60.53375028609759,
parrot,papagaio,,,,,2,0,2,0,0,14,14,5,,,,,,,,,,,,,,,,,,,1330.502506299992,1330.502506299992,,,,,,,,,,,,,,,,,,,,,,,,,,robson,001,2023-01-28_17h04.32.129,aula_047,2022.2.1,60.53375028609759,
frog,sapo,,,,,2,0,2,0,0,15,15,25,,,,,,,,,,,,,,,,,,,1335.502352800002,1335.502352800002,,,,,,,,,,,,,,,,,,,,,,,,,,robson,001,2023-01-28_17h04.32.129,aula_047,2022.2.1,60.53375028609759,
scarf,cachecol,,,,,2,0,2,0,0,16,16,18,,,,,,,,,,,,,,,,,,,1340.5020504999993,1340.5020504999993,,,,,,,,,,,,,,,,,,,,,,,,,,robson,001,2023-01-28_17h04.32.129,aula_047,2022.2.1,60.53375028609759,
trouble,problema,,,,,2,0,2,0,0,17,17,2,,,,,,,,,,,,,,,,,,,1345.5018086999917,1345.5018086999917,,,,,,,,,,,,,,,,,,,,,,,,,,robson,001,2023-01-28_17h04.32.129,aula_047,2022.2.1,60.53375028609759,
bone,osso,,,,,2,0,2,0,0,18,18,26,,,,,,,,,,,,,,,,,,,1350.501558799995,1350.501558799995,,,,,,,,,,,,,,,,,,,,,,,,,,robson,001,2023-01-28_17h04.32.129,aula_047,2022.2.1,60.53375028609759,
crab,caranguejo,,,,,2,0,2,0,0,19,19,22,,,,,,,,,,,,,,,,,,,1355.5016946999967,1355.5016946999967,,,,,,,,,,,,,,,,,,,,,,,,,,robson,001,2023-01-28_17h04.32.129,aula_047,2022.2.1,60.53375028609759,
trench,trincheira,,,,,2,0,2,0,0,20,20,15,,,,,,,,,,,,,,,,,,,1360.517100099998,1360.517100099998,,,,,,,,,,,,,,,,,,,,,,,,,,robson,001,2023-01-28_17h04.32.129,aula_047,2022.2.1,60.53375028609759,
manure,estrume,,,,,2,0,2,0,0,21,21,11,,,,,,,,,,,,,,,,,,,1365.500832699996,1365.500832699996,,,,,,,,,,,,,,,,,,,,,,,,,,robson,001,2023-01-28_17h04.32.129,aula_047,2022.2.1,60.53375028609759,
donkey,burro,,,,,2,0,2,0,0,22,22,10,,,,,,,,,,,,,,,,,,,1370.500750799998,1370.500750799998,,,,,,,,,,,,,,,,,,,,,,,,,,robson,001,2023-01-28_17h04.32.129,aula_047,2022.2.1,60.53375028609759,
sleep,sono,,,,,2,0,2,0,0,23,23,1,,,,,,,,,,,,,,,,,,,1375.5007844999927,1375.5007844999927,,,,,,,,,,,,,,,,,,,,,,,,,,robson,001,2023-01-28_17h04.32.129,aula_047,2022.2.1,60.53375028609759,
yeast,levedura,,,,,2,0,2,0,0,24,24,0,,,,,,,,,,,,,,,,,,,1380.5001996999927,1380.5001996999927,,,,,,,,,,,,,,,,,,,,,,,,,,robson,001,2023-01-28_17h04.32.129,aula_047,2022.2.1,60.53375028609759,
cloud,nuvem,,,,,2,0,2,0,0,25,25,4,,,,,,,,,,,,,,,,,,,1385.4998804999923,1385.4998804999923,,,,,,,,,,,,,,,,,,,,,,,,,,robson,001,2023-01-28_17h04.32.129,aula_047,2022.2.1,60.53375028609759,
dog,cachorro,,,,,2,0,2,0,0,26,26,19,,,,,,,,,,,,,,,,,,,1390.4996863999986,1390.4996863999986,,,,,,,,,,,,,,,,,,,,,,,,,,robson,001,2023-01-28_17h04.32.129,aula_047,2022.2.1,60.53375028609759,
,,,,,,2,0,2,0,,,,,0,0,0,0,,,,,,,,,,,,,,,,,,,1395.5151941999939,,,,3,14,42,,['space'],[118441.1996041],0,,,,,,,,,,,,,robson,001,2023-01-28_17h04.32.129,aula_047,2022.2.1,60.53375028609759,
sleep,sono,,,,,2,0,2,0,,,,,,,,,0,0,0,21,,,,,,,,,,,,,,,,,,,,,,,,,,1395.5151941999939,1395.5151941999939,1419.7484702999936,1419.7484702999936,0,SnT,,,,,,,robson,001,2023-01-28_17h04.32.129,aula_047,2022.2.1,60.53375028609759,
cloud,nuvem,,,,,2,0,2,0,,,,,,,,,0,1,1,1,,,,,,,,,,,,,,,,,,,,,,,,,,,,1427.7645703999879,1427.7645703999879,1,SnT,nuvem,,,,,,robson,001,2023-01-28_17h04.32.129,aula_047,2022.2.1,60.53375028609759,
crab,caranguejo,,,,,2,0,2,0,,,,,,,,,0,2,2,10,,,,,,,,,,,,,,,,,,,,,,,,,,,,1435.7475204999937,1435.7475204999937,0,SnT,,,,,,,robson,001,2023-01-28_17h04.32.129,aula_047,2022.2.1,60.53375028609759,
horse,cavalo,,,,,2,0,2,0,,,,,,,,,0,3,3,11,,,,,,,,,,,,,,,,,,,,,,,,,,,,1443.7472206999955,1443.7472206999955,0,SnT,,,,,,,robson,001,2023-01-28_17h04.32.129,aula_047,2022.2.1,60.53375028609759,
bone,osso,,,,,2,0,2,0,,,,,,,,,0,4,4,33,,,,,,,,,,,,,,,,,,,,,,,,,,,,1451.7471743999922,1451.7471743999922,0,SnT,,,,,,,robson,001,2023-01-28_17h04.32.129,aula_047,2022.2.1,60.53375028609759,
bucket,balde,,,,,2,0,2,0,,,,,,,,,0,5,5,6,,,,,,,,,,,,,,,,,,,,,,,,,,,,1459.746574299992,1459.746574299992,0,SnT,,,,,,,robson,001,2023-01-28_17h04.32.129,aula_047,2022.2.1,60.53375028609759,
friend,amigo,,,,,2,0,2,0,,,,,,,,,0,6,6,18,,,,,,,,,,,,,,,,,,,,,,,,,,,,1467.7463598999893,1467.7463598999893,0,SnT,,,,,,,robson,001,2023-01-28_17h04.32.129,aula_047,2022.2.1,60.53375028609759,
glue,cola,,,,,2,0,2,0,,,,,,,,,0,7,7,30,,,,,,,,,,,,,,,,,,,,,,,,,,,,1475.7460097000003,1475.7460097000003,0,SnT,,,,,,,robson,001,2023-01-28_17h04.32.129,aula_047,2022.2.1,60.53375028609759,
beer,cerveja,,,,,2,0,2,0,,,,,,,,,0,8,8,4,,,,,,,,,,,,,,,,,,,,,,,,,,,,1483.745238699994,1483.745238699994,0,SnT,,,,,,,robson,001,2023-01-28_17h04.32.129,aula_047,2022.2.1,60.53375028609759,
trench,trincheira,,,,,2,0,2,0,,,,,,,,,0,9,9,32,,,,,,,,,,,,,,,,,,,,,,,,,,,,1491.7449821999908,1491.7449821999908,0,SnT,,,,,,,robson,001,2023-01-28_17h04.32.129,aula_047,2022.2.1,60.53375028609759,
cheese,queijo,,,,,2,0,2,0,,,,,,,,,0,10,10,36,,,,,,,,,,,,,,,,,,,,,,,,,,,,1499.7447545999894,1499.7447545999894,0,SnT,,,,,,,robson,001,2023-01-28_17h04.32.129,aula_047,2022.2.1,60.53375028609759,
bribe,propina,,,,,2,0,2,0,,,,,,,,,0,11,11,38,,,,,,,,,,,,,,,,,,,,,,,,,,,,1507.7442545999947,1507.7442545999947,0,SnT,,,,,,,robson,001,2023-01-28_17h04.32.129,aula_047,2022.2.1,60.53375028609759,
frog,sapo,,,,,2,0,2,0,,,,,,,,,0,12,12,27,,,,,,,,,,,,,,,,,,,,,,,,,,,,1515.7439739999973,1515.7439739999973,0,SnT,,,,,,,robson,001,2023-01-28_17h04.32.129,aula_047,2022.2.1,60.53375028609759,
knee,joelho,,,,,2,0,2,0,,,,,,,,,0,13,13,2,,,,,,,,,,,,,,,,,,,,,,,,,,,,1523.743426599991,1523.743426599991,0,SnT,,,,,,,robson,001,2023-01-28_17h04.32.129,aula_047,2022.2.1,60.53375028609759,
trouble,problema,,,,,2,0,2,0,,,,,,,,,0,14,14,35,,,,,,,,,,,,,,,,,,,,,,,,,,,,1531.7437735999993,1531.7437735999993,0,SnT,,,,,,,robson,001,2023-01-28_17h04.32.129,aula_047,2022.2.1,60.53375028609759,
yeast,levedura,,,,,2,0,2,0,,,,,,,,,0,15,15,28,,,,,,,,,,,,,,,,,,,,,,,,,,,,1539.7427241999976,1539.7427241999976,0,SnT,,,,,,,robson,001,2023-01-28_17h04.32.129,aula_047,2022.2.1,60.53375028609759,
plate,prato,,,,,2,0,2,0,,,,,,,,,0,16,16,34,,,,,,,,,,,,,,,,,,,,,,,,,,,,1547.7423114999983,1547.7423114999983,0,SnT,,,,,,,robson,001,2023-01-28_17h04.32.129,aula_047,2022.2.1,60.53375028609759,
boat,barco,,,,,2,0,2,0,,,,,,,,,0,17,17,19,,,,,,,,,,,,,,,,,,,,,,,,,,,,1555.7418701999995,1555.7418701999995,0,SnT,,,,,,,robson,001,2023-01-28_17h04.32.129,aula_047,2022.2.1,60.53375028609759,
broom,vassoura,,,,,2,0,2,0,,,,,,,,,0,18,18,5,,,,,,,,,,,,,,,,,,,,,,,,,,,,1563.7420486999908,1563.7420486999908,0,SnT,,,,,,,robson,001,2023-01-28_17h04.32.129,aula_047,2022.2.1,60.53375028609759,
olives,azeitona,,,,,2,0,2,0,,,,,,,,,0,19,19,23,,,,,,,,,,,,,,,,,,,,,,,,,,,,1571.7413527999888,1571.7413527999888,0,SnT,,,,,,,robson,001,2023-01-28_17h04.32.129,aula_047,2022.2.1,60.53375028609759,
queen,rainha,,,,,2,0,2,0,,,,,,,,,0,20,20,14,,,,,,,,,,,,,,,,,,,,,,,,,,,,1579.7408699999942,1579.7408699999942,0,SnT,,,,,,,robson,001,2023-01-28_17h04.32.129,aula_047,2022.2.1,60.53375028609759,
parrot,papagaio,,,,,2,0,2,0,,,,,,,,,0,21,21,37,,,,,,,,,,,,,,,,,,,,,,,,,,,,1587.740793399993,1587.740793399993,0,SnT,,,,,,,robson,001,2023-01-28_17h04.32.129,aula_047,2022.2.1,60.53375028609759,
leaf,folha,,,,,2,0,2,0,,,,,,,,,0,22,22,26,,,,,,,,,,,,,,,,,,,,,,,,,,,,1595.7400460999925,1595.7400460999925,0,SnT,,,,,,,robson,001,2023-01-28_17h04.32.129,aula_047,2022.2.1,60.53375028609759,
food,comida,,,,,2,0,2,0,,,,,,,,,0,23,23,9,,,,,,,,,,,,,,,,,,,,,,,,,,,,1603.7396326000016,1603.7396326000016,0,SnT,,,,,,,robson,001,2023-01-28_17h04.32.129,aula_047,2022.2.1,60.53375028609759,
soul,alma,,,,,2,0,2,0,,,,,,,,,0,24,24,8,,,,,,,,,,,,,,,,,,,,,,,,,,,,1611.739181099998,1611.739181099998,0,SnT,,,,,,,robson,001,2023-01-28_17h04.32.129,aula_047,2022.2.1,60.53375028609759,
curtain,cortina,,,,,2,0,2,0,,,,,,,,,0,25,25,16,,,,,,,,,,,,,,,,,,,,,,,,,,,,1619.7388173999934,1619.7388173999934,0,SnT,,,,,,,robson,001,2023-01-28_17h04.32.129,aula_047,2022.2.1,60.53375028609759,
snow,neve,,,,,2,0,2,0,,,,,,,,,0,26,26,17,,,,,,,,,,,,,,,,,,,,,,,,,,,,1627.7384915000002,1627.7384915000002,0,SnT,,,,,,,robson,001,2023-01-28_17h04.32.129,aula_047,2022.2.1,60.53375028609759,
carpet,tapete,,,,,2,0,2,0,,,,,,,,,0,27,27,15,,,,,,,,,,,,,,,,,,,,,,,,,,,,1635.7380391999905,1635.7380391999905,0,SnT,,,,,,,robson,001,2023-01-28_17h04.32.129,aula_047,2022.2.1,60.53375028609759,
flood,enchente,,,,,2,0,2,0,,,,,,,,,0,28,28,39,,,,,,,,,,,,,,,,,,,,,,,,,,,,1643.7382019999932,1643.7382019999932,0,SnT,,1651.737295400002,1651.737295400002,,,,robson,001,2023-01-28_17h04.32.129,aula_047,2022.2.1,60.53375028609759,
garden,jardim,,,,,2,0,2,0,,,,,,,,,0,29,29,24,,,,,,,,,,,,,,,,,,,,,,,,,,,,1651.737295400002,1651.737295400002,0,SnT,,1659.7373908000009,1659.7373908000009,,,,robson,001,2023-01-28_17h04.32.129,aula_047,2022.2.1,60.53375028609759,
silk,seda,,,,,2,0,2,0,,,,,,,,,0,30,30,13,,,,,,,,,,,,,,,,,,,,,,,,,,,,1659.7373908000009,1659.7373908000009,0,SnT,,1667.7366329999932,1667.7366329999932,,,,robson,001,2023-01-28_17h04.32.129,aula_047,2022.2.1,60.53375028609759,
egg,ovo,,,,,2,0,2,0,,,,,,,,,0,31,31,3,,,,,,,,,,,,,,,,,,,,,,,,,,,,1667.7366329999932,1667.7366329999932,0,SnT,,1675.7363599999953,1675.7363599999953,,,,robson,001,2023-01-28_17h04.32.129,aula_047,2022.2.1,60.53375028609759,
poison,veneno,,,,,2,0,2,0,,,,,,,,,0,32,32,7,,,,,,,,,,,,,,,,,,,,,,,,,,,,1675.7363599999953,1675.7363599999953,0,SnT,,1683.7359809999907,1683.7359809999907,,,,robson,001,2023-01-28_17h04.32.129,aula_047,2022.2.1,60.53375028609759,
lake,lago,,,,,2,0,2,0,,,,,,,,,0,33,33,22,,,,,,,,,,,,,,,,,,,,,,,,,,,,1683.7359809999907,1683.7359809999907,0,SnT,,1691.735543399991,1691.735543399991,,,,robson,001,2023-01-28_17h04.32.129,aula_047,2022.2.1,60.53375028609759,
wheel,roda,,,,,2,0,2,0,,,,,,,,,0,34,34,31,,,,,,,,,,,,,,,,,,,,,,,,,,,,1691.735543399991,1691.735543399991,0,SnT,,1699.7351127000002,1699.7351127000002,,,,robson,001,2023-01-28_17h04.32.129,aula_047,2022.2.1,60.53375028609759,
dust,poeira,,,,,2,0,2,0,,,,,,,,,0,35,35,29,,,,,,,,,,,,,,,,,,,,,,,,,,,,1699.7351127000002,1699.7351127000002,0,SnT,,1707.7348062999954,1707.7348062999954,,,,robson,001,2023-01-28_17h04.32.129,aula_047,2022.2.1,60.53375028609759,
donkey,burro,,,,,2,0,2,0,,,,,,,,,0,36,36,20,,,,,,,,,,,,,,,,,,,,,,,,,,,,1707.7348062999954,1707.7348062999954,0,SnT,,1715.7344183999958,1715.7344183999958,,,,robson,001,2023-01-28_17h04.32.129,aula_047,2022.2.1,60.53375028609759,
scarf,cachecol,,,,,2,0,2,0,,,,,,,,,0,37,37,12,,,,,,,,,,,,,,,,,,,,,,,,,,,,1715.7344183999958,1715.7344183999958,0,SnT,,1723.7343274000013,1723.7343274000013,,,,robson,001,2023-01-28_17h04.32.129,aula_047,2022.2.1,60.53375028609759,
manure,estrume,,,,,2,0,2,0,,,,,,,,,0,38,38,25,,,,,,,,,,,,,,,,,,,,,,,,,,,,1723.7343274000013,1723.7343274000013,0,SnT,,1731.733548899996,1731.733548899996,,,,robson,001,2023-01-28_17h04.32.129,aula_047,2022.2.1,60.53375028609759,
dog,cachorro,,,,,2,0,2,0,,,,,,,,,0,39,39,0,,,,,,,,,,,,,,,,,,,,,,,,,,,,1731.733548899996,1731.733548899996,0,SnT,,1739.7488330999913,1739.7488330999913,,,,robson,001,2023-01-28_17h04.32.129,aula_047,2022.2.1,60.53375028609759,
bribe,propina,,,,,3,0,3,0,0,0,0,6,,,,,,,,,,,,,,,,,,,1739.7488330999913,1739.7488330999913,,,,,,,,,,,,,,,,,,,,,,,,,,robson,001,2023-01-28_17h04.32.129,aula_047,2022.2.1,60.53375028609759,
boat,barco,,,,,3,0,3,0,0,1,1,12,,,,,,,,,,,,,,,,,,,1744.7495144999993,1744.7495144999993,,,,,,,,,,,,,,,,,,,,,,,,,,robson,001,2023-01-28_17h04.32.129,aula_047,2022.2.1,60.53375028609759,
snow,neve,,,,,3,0,3,0,0,2,2,15,,,,,,,,,,,,,,,,,,,1749.749314899993,1749.749314899993,,,,,,,,,,,,,,,,,,,,,,,,,,robson,001,2023-01-28_17h04.32.129,aula_047,2022.2.1,60.53375028609759,
lake,lago,,,,,3,0,3,0,0,3,3,20,,,,,,,,,,,,,,,,,,,1754.7495301000017,1754.7495301000017,,,,,,,,,,,,,,,,,,,,,,,,,,robson,001,2023-01-28_17h04.32.129,aula_047,2022.2.1,60.53375028609759,
sleep,sono,,,,,3,0,3,0,0,4,4,0,,,,,,,,,,,,,,,,,,,1759.7493974999961,1759.7493974999961,,,,,,,,,,,,,,,,,,,,,,,,,,robson,001,2023-01-28_17h04.32.129,aula_047,2022.2.1,60.53375028609759,
plate,prato,,,,,3,0,3,0,0,5,5,11,,,,,,,,,,,,,,,,,,,1764.7487116999982,1764.7487116999982,,,,,,,,,,,,,,,,,,,,,,,,,,robson,001,2023-01-28_17h04.32.129,aula_047,2022.2.1,60.53375028609759,
carpet,tapete,,,,,3,0,3,0,0,6,6,16,,,,,,,,,,,,,,,,,,,1769.7483593999932,1769.7483593999932,,,,,,,,,,,,,,,,,,,,,,,,,,robson,001,2023-01-28_17h04.32.129,aula_047,2022.2.1,60.53375028609759,
manure,estrume,,,,,3,0,3,0,0,7,7,24,,,,,,,,,,,,,,,,,,,1774.748209199999,1774.748209199999,,,,,,,,,,,,,,,,,,,,,,,,,,robson,001,2023-01-28_17h04.32.129,aula_047,2022.2.1,60.53375028609759,
knee,joelho,,,,,3,0,3,0,0,8,8,8,,,,,,,,,,,,,,,,,,,1779.7479974999878,1779.7479974999878,,,,,,,,,,,,,,,,,,,,,,,,,,robson,001,2023-01-28_17h04.32.129,aula_047,2022.2.1,60.53375028609759,
silk,seda,,,,,3,0,3,0,0,9,9,18,,,,,,,,,,,,,,,,,,,1784.748236399988,1784.748236399988,,,,,,,,,,,,,,,,,,,,,,,,,,robson,001,2023-01-28_17h04.32.129,aula_047,2022.2.1,60.53375028609759,
garden,jardim,,,,,3,0,3,0,0,10,10,17,,,,,,,,,,,,,,,,,,,1789.7474449000001,1789.7474449000001,,,,,,,,,,,,,,,,,,,,,,,,,,robson,001,2023-01-28_17h04.32.129,aula_047,2022.2.1,60.53375028609759,
trench,trincheira,,,,,3,0,3,0,0,11,11,4,,,,,,,,,,,,,,,,,,,1794.7477245999908,1794.7477245999908,,,,,,,,,,,,,,,,,,,,,,,,,,robson,001,2023-01-28_17h04.32.129,aula_047,2022.2.1,60.53375028609759,
glue,cola,,,,,3,0,3,0,0,12,12,3,,,,,,,,,,,,,,,,,,,1799.7470031999983,1799.7470031999983,,,,,,,,,,,,,,,,,,,,,,,,,,robson,001,2023-01-28_17h04.32.129,aula_047,2022.2.1,60.53375028609759,
leaf,folha,,,,,3,0,3,0,0,13,13,14,,,,,,,,,,,,,,,,,,,1804.7473162999959,1804.7473162999959,,,,,,,,,,,,,,,,,,,,,,,,,,robson,001,2023-01-28_17h04.32.129,aula_047,2022.2.1,60.53375028609759,
crab,caranguejo,,,,,3,0,3,0,0,14,14,1,,,,,,,,,,,,,,,,,,,1809.7472676999896,1809.7472676999896,,,,,,,,,,,,,,,,,,,,,,,,,,robson,001,2023-01-28_17h04.32.129,aula_047,2022.2.1,60.53375028609759,
parrot,papagaio,,,,,3,0,3,0,0,15,15,13,,,,,,,,,,,,,,,,,,,1814.74635999999,1814.74635999999,,,,,,,,,,,,,,,,,,,,,,,,,,robson,001,2023-01-28_17h04.32.129,aula_047,2022.2.1,60.53375028609759,
bone,osso,,,,,3,0,3,0,0,16,16,2,,,,,,,,,,,,,,,,,,,1819.7461547999992,1819.7461547999992,,,,,,,,,,,,,,,,,,,,,,,,,,robson,001,2023-01-28_17h04.32.129,aula_047,2022.2.1,60.53375028609759,
cheese,queijo,,,,,3,0,3,0,0,17,17,5,,,,,,,,,,,,,,,,,,,1824.7464057999896,1824.7464057999896,,,,,,,,,,,,,,,,,,,,,,,,,,robson,001,2023-01-28_17h04.32.129,aula_047,2022.2.1,60.53375028609759,
yeast,levedura,,,,,3,0,3,0,0,18,18,10,,,,,,,,,,,,,,,,,,,1829.7468319999898,1829.7468319999898,,,,,,,,,,,,,,,,,,,,,,,,,,robson,001,2023-01-28_17h04.32.129,aula_047,2022.2.1,60.53375028609759,
poison,veneno,,,,,3,0,3,0,0,19,19,19,,,,,,,,,,,,,,,,,,,1834.7453544000018,1834.7453544000018,,,,,,,,,,,,,,,,,,,,,,,,,,robson,001,2023-01-28_17h04.32.129,aula_047,2022.2.1,60.53375028609759,
trouble,problema,,,,,3,0,3,0,0,20,20,9,,,,,,,,,,,,,,,,,,,1839.7451273999905,1839.7451273999905,,,,,,,,,,,,,,,,,,,,,,,,,,robson,001,2023-01-28_17h04.32.129,aula_047,2022.2.1,60.53375028609759,
dog,cachorro,,,,,3,0,3,0,0,21,21,25,,,,,,,,,,,,,,,,,,,1844.745240999997,1844.745240999997,,,,,,,,,,,,,,,,,,,,,,,,,,robson,001,2023-01-28_17h04.32.129,aula_047,2022.2.1,60.53375028609759,
donkey,burro,,,,,3,0,3,0,0,22,22,22,,,,,,,,,,,,,,,,,,,1849.7447123999882,1849.7447123999882,,,,,,,,,,,,,,,,,,,,,,,,,,robson,001,2023-01-28_17h04.32.129,aula_047,2022.2.1,60.53375028609759,
frog,sapo,,,,,3,0,3,0,0,23,23,7,,,,,,,,,,,,,,,,,,,1854.7444890999905,1854.7444890999905,,,,,,,,,,,,,,,,,,,,,,,,,,robson,001,2023-01-28_17h04.32.129,aula_047,2022.2.1,60.53375028609759,
scarf,cachecol,,,,,3,0,3,0,0,24,24,23,,,,,,,,,,,,,,,,,,,1859.744239599997,1859.744239599997,,,,,,,,,,,,,,,,,,,,,,,,,,robson,001,2023-01-28_17h04.32.129,aula_047,2022.2.1,60.53375028609759,
dust,poeira,,,,,3,0,3,0,0,25,25,21,,,,,,,,,,,,,,,,,,,1864.7439907999942,1864.7439907999942,,,,,,,,,,,,,,,,,,,,,,,,,,robson,001,2023-01-28_17h04.32.129,aula_047,2022.2.1,60.53375028609759,
,,,,,,3,0,3,0,,,,,0,0,0,0,,,,,,,,,,,,,,,,,,,1869.759334199989,,,,2,10,20,,['space'],[118915.444294],0,,,,,,,,,,,,,robson,001,2023-01-28_17h04.32.129,aula_047,2022.2.1,60.53375028609759,
food,comida,,,,,3,0,3,0,,,,,,,,,0,0,0,9,,,,,,,,,,,,,,,,,,,,,,,,,,1869.759334199989,1869.759334199989,3216.0291034999973,3216.0291034999973,0,SnT,,,,,,,robson,001,2023-01-28_17h04.32.129,aula_047,2022.2.1,60.53375028609759,
donkey,burro,,,,,3,0,3,0,,,,,,,,,0,1,1,20,,,,,,,,,,,,,,,,,,,,,,,,,,,,3224.0462210999976,3224.0462210999976,0,SnT,,,,,,,robson,001,2023-01-28_17h04.32.129,aula_047,2022.2.1,60.53375028609759,
yeast,levedura,,,,,3,0,3,0,,,,,,,,,0,2,2,28,,,,,,,,,,,,,,,,,,,,,,,,,,,,3232.0298538999923,3232.0298538999923,0,SnT,,,,,,,robson,001,2023-01-28_17h04.32.129,aula_047,2022.2.1,60.53375028609759,
queen,rainha,,,,,3,0,3,0,,,,,,,,,0,3,3,14,,,,,,,,,,,,,,,,,,,,,,,,,,,,3240.0449372000003,3240.0449372000003,0,SnT,,,,,,,robson,001,2023-01-28_17h04.32.129,aula_047,2022.2.1,60.53375028609759,
bucket,balde,,,,,3,0,3,0,,,,,,,,,0,4,4,6,,,,,,,,,,,,,,,,,,,,,,,,,,,,3248.0280090000015,3248.0280090000015,0,SnT,,,,,,,robson,001,2023-01-28_17h04.32.129,aula_047,2022.2.1,60.53375028609759,
curtain,cortina,,,,,3,0,3,0,,,,,,,,,0,5,5,16,,,,,,,,,,,,,,,,,,,,,,,,,,,,3256.0453424000007,3256.0453424000007,0,SnT,,,,,,,robson,001,2023-01-28_17h04.32.129,aula_047,2022.2.1,60.53375028609759,
dust,poeira,,,,,3,0,3,0,,,,,,,,,0,6,6,29,,,,,,,,,,,,,,,,,,,,,,,,,,,,3264.0454407999932,3264.0454407999932,0,SnT,,,,,,,robson,001,2023-01-28_17h04.32.129,aula_047,2022.2.1,60.53375028609759,
olives,azeitona,,,,,3,0,3,0,,,,,,,,,0,7,7,23,,,,,,,,,,,,,,,,,,,,,,,,,,,,3272.043432099992,3272.043432099992,0,SnT,,,,,,,robson,001,2023-01-28_17h04.32.129,aula_047,2022.2.1,60.53375028609759,
sleep,sono,,,,,3,0,3,0,,,,,,,,,0,8,8,21,,,,,,,,,,,,,,,,,,,,,,,,,,,,3280.0275236000016,3280.0275236000016,0,SnT,,,,,,,robson,001,2023-01-28_17h04.32.129,aula_047,2022.2.1,60.53375028609759,
poison,veneno,,,,,3,0,3,0,,,,,,,,,0,9,9,7,,,,,,,,,,,,,,,,,,,,,,,,,,,,3288.0278843999986,3288.0278843999986,0,SnT,,,,,,,robson,001,2023-01-28_17h04.32.129,aula_047,2022.2.1,60.53375028609759,
flood,enchente,,,,,3,0,3,0,,,,,,,,,0,10,10,39,,,,,,,,,,,,,,,,,,,,,,,,,,,,3296.0268276999996,3296.0268276999996,0,SnT,,,,,,,robson,001,2023-01-28_17h04.32.129,aula_047,2022.2.1,60.53375028609759,
manure,estrume,,,,,3,0,3,0,,,,,,,,,0,11,11,25,,,,,,,,,,,,,,,,,,,,,,,,,,,,3304.026182699992,3304.026182699992,0,SnT,,,,,,,robson,001,2023-01-28_17h04.32.129,aula_047,2022.2.1,60.53375028609759,
boat,barco,,,,,3,0,3,0,,,,,,,,,0,12,12,19,,,,,,,,,,,,,,,,,,,,,,,,,,,,3312.0252336999984,3312.0252336999984,0,SnT,,,,,,,robson,001,2023-01-28_17h04.32.129,aula_047,2022.2.1,60.53375028609759,
soul,alma,,,,,3,0,3,0,,,,,,,,,0,13,13,8,,,,,,,,,,,,,,,,,,,,,,,,,,,,3320.024616900002,3320.024616900002,0,SnT,,,,,,,robson,001,2023-01-28_17h04.32.129,aula_047,2022.2.1,60.53375028609759,
crab,caranguejo,,,,,3,0,3,0,,,,,,,,,0,14,14,10,,,,,,,,,,,,,,,,,,,,,,,,,,,,3328.041404799995,3328.041404799995,0,SnT,,,,,,,robson,001,2023-01-28_17h04.32.129,aula_047,2022.2.1,60.53375028609759,
carpet,tapete,,,,,3,0,3,0,,,,,,,,,0,15,15,15,,,,,,,,,,,,,,,,,,,,,,,,,,,,3336.0236847999913,3336.0236847999913,0,SnT,,,,,,,robson,001,2023-01-28_17h04.32.129,aula_047,2022.2.1,60.53375028609759,
trench,trincheira,,,,,3,0,3,0,,,,,,,,,0,16,16,32,,,,,,,,,,,,,,,,,,,,,,,,,,,,3344.040035699989,3344.040035699989,0,SnT,,,,,,,robson,001,2023-01-28_17h04.32.129,aula_047,2022.2.1,60.53375028609759,
horse,cavalo,,,,,3,0,3,0,,,,,,,,,0,17,17,11,,,,,,,,,,,,,,,,,,,,,,,,,,,,3352.0417708999885,3352.0417708999885,0,SnT,,,,,,,robson,001,2023-01-28_17h04.32.129,aula_047,2022.2.1,60.53375028609759,
glue,cola,,,,,3,0,3,0,,,,,,,,,0,18,18,30,,,,,,,,,,,,,,,,,,,,,,,,,,,,3360.03960009999,3360.03960009999,0,SnT,,,,,,,robson,001,2023-01-28_17h04.32.129,aula_047,2022.2.1,60.53375028609759,
scarf,cachecol,,,,,3,0,3,0,,,,,,,,,0,19,19,12,,,,,,,,,,,,,,,,,,,,,,,,,,,,3368.0391291999986,3368.0391291999986,0,SnT,,,,,,,robson,001,2023-01-28_17h04.32.129,aula_047,2022.2.1,60.53375028609759,
cloud,nuvem,,,,,3,0,3,0,,,,,,,,,0,20,20,1,,,,,,,,,,,,,,,,,,,,,,,,,,,,3376.023100899998,3376.023100899998,0,SnT,,,,,,,robson,001,2023-01-28_17h04.32.129,aula_047,2022.2.1,60.53375028609759,
broom,vassoura,,,,,3,0,3,0,,,,,,,,,0,21,21,5,,,,,,,,,,,,,,,,,,,,,,,,,,,,3384.020675699998,3384.020675699998,0,SnT,,,,,,,robson,001,2023-01-28_17h04.32.129,aula_047,2022.2.1,60.53375028609759,
leaf,folha,,,,,3,0,3,0,,,,,,,,,0,22,22,26,,,,,,,,,,,,,,,,,,,,,,,,,,,,3392.036857599989,3392.036857599989,0,SnT,,,,,,,robson,001,2023-01-28_17h04.32.129,aula_047,2022.2.1,60.53375028609759,
lake,lago,,,,,3,0,3,0,,,,,,,,,0,23,23,22,,,,,,,,,,,,,,,,,,,,,,,,,,,,3400.0369065999985,3400.0369065999985,0,SnT,,,,,,,robson,001,2023-01-28_17h04.32.129,aula_047,2022.2.1,60.53375028609759,
bone,osso,,,,,3,0,3,0,,,,,,,,,0,24,24,33,,,,,,,,,,,,,,,,,,,,,,,,,,,,3408.038427499996,3408.038427499996,0,SnT,,,,,,,robson,001,2023-01-28_17h04.32.129,aula_047,2022.2.1,60.53375028609759,
garden,jardim,,,,,3,0,3,0,,,,,,,,,0,25,25,24,,,,,,,,,,,,,,,,,,,,,,,,,,,,3416.102762900002,3416.102762900002,0,SnT,,,,,,,robson,001,2023-01-28_17h04.32.129,aula_047,2022.2.1,60.53375028609759,
egg,ovo,,,,,3,0,3,0,,,,,,,,,0,26,26,3,,,,,,,,,,,,,,,,,,,,,,,,,,,,3424.0356987999985,3424.0356987999985,0,SnT,,,,,,,robson,001,2023-01-28_17h04.32.129,aula_047,2022.2.1,60.53375028609759,
knee,joelho,,,,,3,0,3,0,,,,,,,,,0,27,27,2,,,,,,,,,,,,,,,,,,,,,,,,,,,,3432.018749900002,3432.018749900002,0,SnT,,,,,,,robson,001,2023-01-28_17h04.32.129,aula_047,2022.2.1,60.53375028609759,
snow,neve,,,,,3,0,3,0,,,,,,,,,0,28,28,17,,,,,,,,,,,,,,,,,,,,,,,,,,,,3440.036587999988,3440.036587999988,0,SnT,,,,,,,robson,001,2023-01-28_17h04.32.129,aula_047,2022.2.1,60.53375028609759,
beer,cerveja,,,,,3,0,3,0,,,,,,,,,0,29,29,4,,,,,,,,,,,,,,,,,,,,,,,,,,,,3448.0176472999883,3448.0176472999883,0,SnT,,,,,,,robson,001,2023-01-28_17h04.32.129,aula_047,2022.2.1,60.53375028609759,
parrot,papagaio,,,,,3,0,3,0,,,,,,,,,0,30,30,37,,,,,,,,,,,,,,,,,,,,,,,,,,,,3456.0181942999916,3456.0181942999916,0,SnT,,,,,,,robson,001,2023-01-28_17h04.32.129,aula_047,2022.2.1,60.53375028609759,
silk,seda,,,,,3,0,3,0,,,,,,,,,0,31,31,13,,,,,,,,,,,,,,,,,,,,,,,,,,,,3464.0172711999912,3464.0172711999912,0,SnT,,,,,,,robson,001,2023-01-28_17h04.32.129,aula_047,2022.2.1,60.53375028609759,
dog,cachorro,,,,,3,0,3,0,,,,,,,,,0,32,32,0,,,,,,,,,,,,,,,,,,,,,,,,,,,,3472.038253199993,3472.038253199993,0,SnT,,,,,,,robson,001,2023-01-28_17h04.32.129,aula_047,2022.2.1,60.53375028609759,
friend,amigo,,,,,3,0,3,0,,,,,,,,,0,33,33,18,,,,,,,,,,,,,,,,,,,,,,,,,,,,3480.034113499991,3480.034113499991,0,SnT,,,,,,,robson,001,2023-01-28_17h04.32.129,aula_047,2022.2.1,60.53375028609759,
frog,sapo,,,,,3,0,3,0,,,,,,,,,0,34,34,27,,,,,,,,,,,,,,,,,,,,,,,,,,,,3488.0160957999906,3488.0160957999906,0,SnT,,,,,,,robson,001,2023-01-28_17h04.32.129,aula_047,2022.2.1,60.53375028609759,
wheel,roda,,,,,3,0,3,0,,,,,,,,,0,35,35,31,,,,,,,,,,,,,,,,,,,,,,,,,,,,3496.033134199999,3496.033134199999,0,SnT,,,,,,,robson,001,2023-01-28_17h04.32.129,aula_047,2022.2.1,60.53375028609759,
plate,prato,,,,,3,0,3,0,,,,,,,,,0,36,36,34,,,,,,,,,,,,,,,,,,,,,,,,,,,,3504.032503399998,3504.032503399998,0,SnT,,,,,,,robson,001,2023-01-28_17h04.32.129,aula_047,2022.2.1,60.53375028609759,
bribe,propina,,,,,3,0,3,0,,,,,,,,,0,37,37,38,,,,,,,,,,,,,,,,,,,,,,,,,,,,3512.01493379999,3512.01493379999,0,SnT,,,,,,,robson,001,2023-01-28_17h04.32.129,aula_047,2022.2.1,60.53375028609759,
cheese,queijo,,,,,3,0,3,0,,,,,,,,,0,38,38,36,,,,,,,,,,,,,,,,,,,,,,,,,,,,3520.0150080999883,3520.0150080999883,0,SnT,,3528.0142771999963,3528.0142771999963,,,,robson,001,2023-01-28_17h04.32.129,aula_047,2022.2.1,60.53375028609759,
trouble,problema,,,,,3,0,3,0,,,,,,,,,0,39,39,35,,,,,,,,,,,,,,,,,,,,,,,,,,,,3528.0142771999963,3528.0142771999963,0,SnT,,3536.0137692999997,3536.0137692999997,,,,robson,001,2023-01-28_17h04.32.129,aula_047,2022.2.1,60.53375028609759,
,,,,,,,,,,,,,,,,,,,,,,,,,,,,,,,,,,,,,,,,,,,,,,,,,,,,,,,,3536.0137692999997,3536.0137692999997,3379.0469673000043,,,,,,,
