instructions.thisRepN,instructions.thisTrialN,instructions.thisN,instructions.thisIndex,keeping_track_trials.thisRepN,keeping_track_trials.thisTrialN,keeping_track_trials.thisN,keeping_track_trials.thisIndex,keeping_track_word.thisRepN,keeping_track_word.thisTrialN,keeping_track_word.thisN,keeping_track_word.thisIndex,keeping_track_questions.thisRepN,keeping_track_questions.thisTrialN,keeping_track_questions.thisN,keeping_track_questions.thisIndex,welcome_msg.started,welcome_next.started,welcome_resp.started,participant_code,instr_msg.started,previous.started,next.started,instr_resp.started,new_trial_prompt.started,new_trial_next.started,new_trial_resp.started,to_be_remembered_categories.started,to_be_remembered.started,to_be_remembered.stopped,current_categories,category,word,to_be_remembered_categories_2.started,prompt_recall.started,multiple_choice_options.started,recall_response.started,n_targets,target_category,option_1,option_2,option_3,correct_value,correct_resp,participant_resp,score,recall_response.keys,recall_response.rt,thanks_prompt.started,thanks_spacebar.started,thanks_resp.started,session_duration,ID,Nome Completo,date,expName,psychopyVersion,frameRate,
,,,,,,,,,,,,,,,,91.87926749989856,91.87926749989856,0.02379300002939999,647623292,,,,,,,,,,,,,,,,,,,,,,,,,,,,,,,,,647623292,Marcos Lima,2025-09-06_13h59.48.164,ktt,2022.2.1,59.986275147471545,
,,,,0,0,0,0,0,0,0,0,,,,,,,,647623292,95.16317059996072,95.16317059996072,95.16317059996072,0.011054500006139278,95.32933849992696,95.32933849992696,0.0006890000076964498,95.52013989991974,95.97962569992524,97.48233379994053,Animais   Metais   Frutas,Frutas,Morango,,,,,,,,,,,,,,,,,,,,647623292,Marcos Lima,2025-09-06_13h59.48.164,ktt,2022.2.1,59.986275147471545,
,,,,0,0,0,0,1,0,1,0,,,,,,,,647623292,,,,,,,,97.51459979999345,97.98128259996884,,Animais   Metais   Frutas,Animais,Baleia,,,,,,,,,,,,,,,,,,,,647623292,Marcos Lima,2025-09-06_13h59.48.164,ktt,2022.2.1,59.986275147471545,
,,,,0,0,0,0,2,0,2,0,,,,,,,,647623292,,,,,,,,99.52588289999403,99.97949339996558,101.47921049990691,Animais   Metais   Frutas,Metais,Ferro,,,,,,,,,,,,,,,,,,,,647623292,Marcos Lima,2025-09-06_13h59.48.164,ktt,2022.2.1,59.986275147471545,
,,,,0,0,0,0,3,0,3,0,,,,,,,,647623292,,,,,,,,101.52855669998098,101.99558889993932,,Animais   Metais   Frutas,Países,Canadá,,,,,,,,,,,,,,,,,,,,647623292,Marcos Lima,2025-09-06_13h59.48.164,ktt,2022.2.1,59.986275147471545,
,,,,0,0,0,0,4,0,4,0,,,,,,,,647623292,,,,,,,,103.51788439997472,103.99586749996524,105.49520229990594,Animais   Metais   Frutas,Cores,Amarelo,,,,,,,,,,,,,,,,,,,,647623292,Marcos Lima,2025-09-06_13h59.48.164,ktt,2022.2.1,59.986275147471545,
,,,,0,0,0,0,5,0,5,0,,,,,,,,647623292,,,,,,,,105.51872419996653,105.97914499999024,,Animais   Metais   Frutas,Animais,Urso,,,,,,,,,,,,,,,,,,,,647623292,Marcos Lima,2025-09-06_13h59.48.164,ktt,2022.2.1,59.986275147471545,
,,,,0,0,0,0,6,0,6,0,,,,,,,,647623292,,,,,,,,107.53173589997459,107.99938199995086,,Animais   Metais   Frutas,Cores,Vermelho,,,,,,,,,,,,,,,,,,,,647623292,Marcos Lima,2025-09-06_13h59.48.164,ktt,2022.2.1,59.986275147471545,
,,,,0,0,0,0,7,0,7,0,,,,,,,,647623292,,,,,,,,109.58987829997204,109.99740979995113,111.49544089997653,Animais   Metais   Frutas,Países,Alemanha,,,,,,,,,,,,,,,,,,,,647623292,Marcos Lima,2025-09-06_13h59.48.164,ktt,2022.2.1,59.986275147471545,
,,,,0,0,0,0,8,0,8,0,,,,,,,,647623292,,,,,,,,111.51257539994549,112.07465450000018,,Animais   Metais   Frutas,Frutas,Maçã,,,,,,,,,,,,,,,,,,,,647623292,Marcos Lima,2025-09-06_13h59.48.164,ktt,2022.2.1,59.986275147471545,
,,,,0,0,0,0,9,0,9,0,,,,,,,,647623292,,,,,,,,113.54655049997382,114.16219509998336,,Animais   Metais   Frutas,Metais,Alumínio,,,,,,,,,,,,,,,,,,,,647623292,Marcos Lima,2025-09-06_13h59.48.164,ktt,2022.2.1,59.986275147471545,
,,,,0,0,0,0,10,0,10,0,,,,,,,,647623292,,,,,,,,115.52920839993749,115.99827829992864,,Animais   Metais   Frutas,Metais,Cobre,,,,,,,,,,,,,,,,,,,,647623292,Marcos Lima,2025-09-06_13h59.48.164,ktt,2022.2.1,59.986275147471545,
,,,,0,0,0,0,11,0,11,0,,,,,,,,647623292,,,,,,,,117.58070419996511,117.98305299994536,119.4994744999567,Animais   Metais   Frutas,Animais,Zebra,,,,,,,,,,,,,,,,,,,,647623292,Marcos Lima,2025-09-06_13h59.48.164,ktt,2022.2.1,59.986275147471545,
,,,,0,0,0,0,12,0,12,0,,,,,,,,647623292,,,,,,,,119.65736859990284,119.98870479990728,,Animais   Metais   Frutas,Cores,Azul,,,,,,,,,,,,,,,,,,,,647623292,Marcos Lima,2025-09-06_13h59.48.164,ktt,2022.2.1,59.986275147471545,
,,,,0,0,0,0,13,0,13,0,,,,,,,,647623292,,,,,,,,121.51436589995865,121.98093989992049,123.49662479991093,Animais   Metais   Frutas,Parentes,Pai,,,,,,,,,,,,,,,,,,,,647623292,Marcos Lima,2025-09-06_13h59.48.164,ktt,2022.2.1,59.986275147471545,
,,,,0,0,0,0,14,0,14,0,,,,,,,,647623292,,,,,,,,123.51251179992687,123.99921229993924,,Animais   Metais   Frutas,Parentes,Filha,,,,,,,,,,,,,,,,,,,,647623292,Marcos Lima,2025-09-06_13h59.48.164,ktt,2022.2.1,59.986275147471545,
,,,,0,0,0,0,,,,,0,0,0,0,,,,647623292,,,,,,,,,,,Animais   Metais   Frutas,,,125.64758389990311,125.64758389990311,125.64758389990311,125.64758389990311,3,Animais,Zebra,Baleia,Urso,Zebra,1,1,1,num_1,225.23657940002158,,,,,647623292,Marcos Lima,2025-09-06_13h59.48.164,ktt,2022.2.1,59.986275147471545,
,,,,0,0,0,0,,,,,1,0,1,0,,,,647623292,,,,,,,,,,,Animais   Metais   Frutas,,,350.91605899995193,350.91605899995193,350.91605899995193,350.91605899995193,3,Metais,Cobre,Alumínio,Ferro,Cobre,1,2,0,num_2,0.48600699997041374,,,,,647623292,Marcos Lima,2025-09-06_13h59.48.164,ktt,2022.2.1,59.986275147471545,
,,,,0,0,0,0,,,,,2,0,2,0,,,,647623292,,,,,,,,,,,Animais   Metais   Frutas,,,351.43267639994156,351.43267639994156,351.43267639994156,351.43267639994156,3,Frutas,Morango,Maçã,Banana,Maçã,2,3,0,num_3,0.16850190004333854,,,,,647623292,Marcos Lima,2025-09-06_13h59.48.164,ktt,2022.2.1,59.986275147471545,
,,,,0,0,0,0,,,,,,,,,,,,,,,,,,,,,,,,,,,,,,,,,,,,,,,,,,,,,647623292,Marcos Lima,2025-09-06_13h59.48.164,ktt,2022.2.1,59.986275147471545,
,,,,1,0,1,0,0,0,0,0,,,,,,,,647623292,,,,,351.61752889992204,351.61752889992204,0.00024339999072253704,353.1495083998889,353.6336912999395,355.13404289993923,Frutas   Países,Animais,Zebra,,,,,,,,,,,,,,,,,,,,647623292,Marcos Lima,2025-09-06_13h59.48.164,ktt,2022.2.1,59.986275147471545,
,,,,1,0,1,0,1,0,1,0,,,,,,,,647623292,,,,,,,,355.15030949993525,355.63425499992445,357.13421439996455,Frutas   Países,Frutas,Banana,,,,,,,,,,,,,,,,,,,,647623292,Marcos Lima,2025-09-06_13h59.48.164,ktt,2022.2.1,59.986275147471545,
,,,,1,0,1,0,2,0,2,0,,,,,,,,647623292,,,,,,,,357.15037109993864,357.6339502999326,359.1338949999772,Frutas   Países,Parentes,Pai,,,,,,,,,,,,,,,,,,,,647623292,Marcos Lima,2025-09-06_13h59.48.164,ktt,2022.2.1,59.986275147471545,
,,,,1,0,1,0,3,0,3,0,,,,,,,,647623292,,,,,,,,359.15023109992035,359.63326589995995,361.1345811999636,Frutas   Países,Países,Alemanha,,,,,,,,,,,,,,,,,,,,647623292,Marcos Lima,2025-09-06_13h59.48.164,ktt,2022.2.1,59.986275147471545,
,,,,1,0,1,0,4,0,4,0,,,,,,,,647623292,,,,,,,,361.1500440998934,361.6334962999681,363.1333816999104,Frutas   Países,Parentes,Tia,,,,,,,,,,,,,,,,,,,,647623292,Marcos Lima,2025-09-06_13h59.48.164,ktt,2022.2.1,59.986275147471545,
,,,,1,0,1,0,5,0,5,0,,,,,,,,647623292,,,,,,,,363.15018679993227,363.63391629990656,365.1338719999185,Frutas   Países,Frutas,Morango,,,,,,,,,,,,,,,,,,,,647623292,Marcos Lima,2025-09-06_13h59.48.164,ktt,2022.2.1,59.986275147471545,
,,,,1,0,1,0,6,0,6,0,,,,,,,,647623292,,,,,,,,365.1502334999386,365.6337306998903,367.13343489996623,Frutas   Países,Países,Japão,,,,,,,,,,,,,,,,,,,,647623292,Marcos Lima,2025-09-06_13h59.48.164,ktt,2022.2.1,59.986275147471545,
,,,,1,0,1,0,7,0,7,0,,,,,,,,647623292,,,,,,,,367.1496459998889,367.6331552999327,369.1339585999958,Frutas   Países,Frutas,Maçã,,,,,,,,,,,,,,,,,,,,647623292,Marcos Lima,2025-09-06_13h59.48.164,ktt,2022.2.1,59.986275147471545,
,,,,1,0,1,0,8,0,8,0,,,,,,,,647623292,,,,,,,,369.1499569999287,369.6332729998976,371.13318669993896,Frutas   Países,Animais,Baleia,,,,,,,,,,,,,,,,,,,,647623292,Marcos Lima,2025-09-06_13h59.48.164,ktt,2022.2.1,59.986275147471545,
,,,,1,0,1,0,9,0,9,0,,,,,,,,647623292,,,,,,,,371.1496844999492,371.63364099990577,373.1333409999497,Frutas   Países,Metais,Cobre,,,,,,,,,,,,,,,,,,,,647623292,Marcos Lima,2025-09-06_13h59.48.164,ktt,2022.2.1,59.986275147471545,
,,,,1,0,1,0,10,0,10,0,,,,,,,,647623292,,,,,,,,373.1497484999709,373.6329528999049,375.13342919992283,Frutas   Países,Cores,Vermelho,,,,,,,,,,,,,,,,,,,,647623292,Marcos Lima,2025-09-06_13h59.48.164,ktt,2022.2.1,59.986275147471545,
,,,,1,0,1,0,11,0,11,0,,,,,,,,647623292,,,,,,,,375.1494697999442,375.63373259990476,377.13344729994424,Frutas   Países,Metais,Ferro,,,,,,,,,,,,,,,,,,,,647623292,Marcos Lima,2025-09-06_13h59.48.164,ktt,2022.2.1,59.986275147471545,
,,,,1,0,1,0,12,0,12,0,,,,,,,,647623292,,,,,,,,377.1498674999457,377.63307779992465,379.1323774999473,Frutas   Países,Cores,Amarelo,,,,,,,,,,,,,,,,,,,,647623292,Marcos Lima,2025-09-06_13h59.48.164,ktt,2022.2.1,59.986275147471545,
,,,,1,0,1,0,13,0,13,0,,,,,,,,647623292,,,,,,,,379.1494294999866,379.6332173999399,381.1331366999075,Frutas   Países,Parentes,Filha,,,,,,,,,,,,,,,,,,,,647623292,Marcos Lima,2025-09-06_13h59.48.164,ktt,2022.2.1,59.986275147471545,
,,,,1,0,1,0,14,0,14,0,,,,,,,,647623292,,,,,,,,381.14852789998986,381.6322041999083,383.13256009994075,Frutas   Países,Metais,Alumínio,,,,,,,,,,,,,,,,,,,,647623292,Marcos Lima,2025-09-06_13h59.48.164,ktt,2022.2.1,59.986275147471545,
,,,,1,0,1,0,,,,,0,0,0,0,,,,647623292,,,,,,,,,,,Frutas   Países,,,383.14848749991506,383.14848749991506,383.14848749991506,383.14848749991506,2,Frutas,Banana,Maçã,Morango,Maçã,2,1,0,num_1,1.1858367000240833,,,,,647623292,Marcos Lima,2025-09-06_13h59.48.164,ktt,2022.2.1,59.986275147471545,
,,,,1,0,1,0,,,,,1,0,1,0,,,,647623292,,,,,,,,,,,Frutas   Países,,,384.38104209990706,384.38104209990706,384.38104209990706,384.38104209990706,2,Países,Japão,Alemanha,Canadá,Japão,1,2,0,num_2,0.3345072000520304,,,,,647623292,Marcos Lima,2025-09-06_13h59.48.164,ktt,2022.2.1,59.986275147471545,
,,,,1,0,1,0,,,,,,,,,,,,,,,,,,,,,,,,,,,,,,,,,,,,,,,,,,,,,647623292,Marcos Lima,2025-09-06_13h59.48.164,ktt,2022.2.1,59.986275147471545,
,,,,2,0,2,0,0,0,0,0,,,,,,,,647623292,,,,,384.7322740999516,384.7322740999516,0.00022310006897896528,386.6474415999837,387.1318010999821,388.6320175000001,Animais   Metais   Cores   Parentes,Cores,Azul,,,,,,,,,,,,,,,,,,,,647623292,Marcos Lima,2025-09-06_13h59.48.164,ktt,2022.2.1,59.986275147471545,
,,,,2,0,2,0,1,0,1,0,,,,,,,,647623292,,,,,,,,388.64851939992514,389.1320861999411,390.6319822999649,Animais   Metais   Cores   Parentes,Parentes,Tia,,,,,,,,,,,,,,,,,,,,647623292,Marcos Lima,2025-09-06_13h59.48.164,ktt,2022.2.1,59.986275147471545,
,,,,2,0,2,0,2,0,2,0,,,,,,,,647623292,,,,,,,,390.64849609998055,391.1325469999574,392.63231839996297,Animais   Metais   Cores   Parentes,Animais,Baleia,,,,,,,,,,,,,,,,,,,,647623292,Marcos Lima,2025-09-06_13h59.48.164,ktt,2022.2.1,59.986275147471545,
,,,,2,0,2,0,3,0,3,0,,,,,,,,647623292,,,,,,,,392.6477756999666,393.13163279998116,394.6322618999984,Animais   Metais   Cores   Parentes,Animais,Urso,,,,,,,,,,,,,,,,,,,,647623292,Marcos Lima,2025-09-06_13h59.48.164,ktt,2022.2.1,59.986275147471545,
,,,,2,0,2,0,4,0,4,0,,,,,,,,647623292,,,,,,,,394.6488495999947,395.1324933998985,396.63290829991456,Animais   Metais   Cores   Parentes,Cores,Amarelo,,,,,,,,,,,,,,,,,,,,647623292,Marcos Lima,2025-09-06_13h59.48.164,ktt,2022.2.1,59.986275147471545,
,,,,2,0,2,0,5,0,5,0,,,,,,,,647623292,,,,,,,,396.64862729993183,397.13199869997334,398.6311681999359,Animais   Metais   Cores   Parentes,Metais,Alumínio,,,,,,,,,,,,,,,,,,,,647623292,Marcos Lima,2025-09-06_13h59.48.164,ktt,2022.2.1,59.986275147471545,
,,,,2,0,2,0,6,0,6,0,,,,,,,,647623292,,,,,,,,398.6479264999507,399.1313860999653,400.63146099995356,Animais   Metais   Cores   Parentes,Cores,Vermelho,,,,,,,,,,,,,,,,,,,,647623292,Marcos Lima,2025-09-06_13h59.48.164,ktt,2022.2.1,59.986275147471545,
,,,,2,0,2,0,7,0,7,0,,,,,,,,647623292,,,,,,,,400.6479804998962,401.13143769989256,402.63127159990836,Animais   Metais   Cores   Parentes,Parentes,Pai,,,,,,,,,,,,,,,,,,,,647623292,Marcos Lima,2025-09-06_13h59.48.164,ktt,2022.2.1,59.986275147471545,
,,,,2,0,2,0,8,0,8,0,,,,,,,,647623292,,,,,,,,402.64751649997197,403.1314965999918,404.63164009992033,Animais   Metais   Cores   Parentes,Países,Canadá,,,,,,,,,,,,,,,,,,,,647623292,Marcos Lima,2025-09-06_13h59.48.164,ktt,2022.2.1,59.986275147471545,
,,,,2,0,2,0,9,0,9,0,,,,,,,,647623292,,,,,,,,404.6481566999573,405.1319236999843,406.63172339997254,Animais   Metais   Cores   Parentes,Frutas,Maçã,,,,,,,,,,,,,,,,,,,,647623292,Marcos Lima,2025-09-06_13h59.48.164,ktt,2022.2.1,59.986275147471545,
,,,,2,0,2,0,10,0,10,0,,,,,,,,647623292,,,,,,,,406.64787489990704,407.1315827999497,408.631800299976,Animais   Metais   Cores   Parentes,Metais,Cobre,,,,,,,,,,,,,,,,,,,,647623292,Marcos Lima,2025-09-06_13h59.48.164,ktt,2022.2.1,59.986275147471545,
,,,,2,0,2,0,11,0,11,0,,,,,,,,647623292,,,,,,,,408.6482707998948,409.1307402999373,410.6314712999156,Animais   Metais   Cores   Parentes,Frutas,Banana,,,,,,,,,,,,,,,,,,,,647623292,Marcos Lima,2025-09-06_13h59.48.164,ktt,2022.2.1,59.986275147471545,
,,,,2,0,2,0,12,0,12,0,,,,,,,,647623292,,,,,,,,410.6479158999864,411.1313205999322,412.6307923999848,Animais   Metais   Cores   Parentes,Países,Japão,,,,,,,,,,,,,,,,,,,,647623292,Marcos Lima,2025-09-06_13h59.48.164,ktt,2022.2.1,59.986275147471545,
,,,,2,0,2,0,13,0,13,0,,,,,,,,647623292,,,,,,,,412.64745289995335,413.1308888999047,414.63045639998745,Animais   Metais   Cores   Parentes,Animais,Zebra,,,,,,,,,,,,,,,,,,,,647623292,Marcos Lima,2025-09-06_13h59.48.164,ktt,2022.2.1,59.986275147471545,
,,,,2,0,2,0,14,0,14,0,,,,,,,,647623292,,,,,,,,414.6470565999625,415.1304365999531,416.63095059990883,Animais   Metais   Cores   Parentes,Países,Alemanha,,,,,,,,,,,,,,,,,,,,647623292,Marcos Lima,2025-09-06_13h59.48.164,ktt,2022.2.1,59.986275147471545,
,,,,2,0,2,0,,,,,0,0,0,0,,,,647623292,,,,,,,,,,,Animais   Metais   Cores   Parentes,,,416.68002939992584,416.68002939992584,416.68002939992584,416.68002939992584,4,Animais,Urso,Baleia,Zebra,Zebra,3,2,0,num_2,1.4006777999456972,,,,,647623292,Marcos Lima,2025-09-06_13h59.48.164,ktt,2022.2.1,59.986275147471545,
,,,,2,0,2,0,,,,,1,0,1,0,,,,647623292,,,,,,,,,,,Animais   Metais   Cores   Parentes,,,418.1129494999768,418.1129494999768,418.1129494999768,418.1129494999768,4,Metais,Cobre,Alumínio,Ferro,Cobre,1,1,1,num_1,0.9018965000286698,,,,,647623292,Marcos Lima,2025-09-06_13h59.48.164,ktt,2022.2.1,59.986275147471545,
,,,,2,0,2,0,,,,,2,0,2,0,,,,647623292,,,,,,,,,,,Animais   Metais   Cores   Parentes,,,419.04617139999755,419.04617139999755,419.04617139999755,419.04617139999755,4,Cores,Azul,Vermelho,Amarelo,Vermelho,2,2,1,num_2,0.8016330000245944,,,,,647623292,Marcos Lima,2025-09-06_13h59.48.164,ktt,2022.2.1,59.986275147471545,
,,,,2,0,2,0,,,,,3,0,3,0,,,,647623292,,,,,,,,,,,Animais   Metais   Cores   Parentes,,,419.86310749989934,419.86310749989934,419.86310749989934,419.86310749989934,4,Parentes,Tia,Pai,Filha,Pai,2,2,1,num_2,1.6516110999509692,,,,,647623292,Marcos Lima,2025-09-06_13h59.48.164,ktt,2022.2.1,59.986275147471545,
,,,,2,0,2,0,,,,,,,,,,,,,,,,,,,,,,,,,,,,,,,,,,,,,,,,,,,,,647623292,Marcos Lima,2025-09-06_13h59.48.164,ktt,2022.2.1,59.986275147471545,
,,,,3,0,3,0,0,0,0,0,,,,,,,,647623292,,,,,421.529968299903,421.529968299903,0.0002191000385209918,423.57917009992525,424.06497789989226,,Frutas   Países   Metais,Animais,Urso,,,,,,,,,,,,,,,,,,,,647623292,Marcos Lima,2025-09-06_13h59.48.164,ktt,2022.2.1,59.986275147471545,
,,,,3,0,3,0,1,0,1,0,,,,,,,,647623292,,,,,,,,425.58039959997404,426.0634111999534,427.5639951999765,Frutas   Países   Metais,Frutas,Banana,,,,,,,,,,,,,,,,,,,,647623292,Marcos Lima,2025-09-06_13h59.48.164,ktt,2022.2.1,59.986275147471545,
,,,,3,0,3,0,2,0,2,0,,,,,,,,647623292,,,,,,,,427.58013799996115,428.0646188999526,429.5633627999341,Frutas   Países   Metais,Metais,Cobre,,,,,,,,,,,,,,,,,,,,647623292,Marcos Lima,2025-09-06_13h59.48.164,ktt,2022.2.1,59.986275147471545,
,,,,3,0,3,0,3,0,3,0,,,,,,,,647623292,,,,,,,,429.5795675999252,430.06451139994897,,Frutas   Países   Metais,Frutas,Morango,,,,,,,,,,,,,,,,,,,,647623292,Marcos Lima,2025-09-06_13h59.48.164,ktt,2022.2.1,59.986275147471545,
,,,,3,0,3,0,4,0,4,0,,,,,,,,647623292,,,,,,,,431.57995559996925,432.06330289994366,433.56257650000043,Frutas   Países   Metais,Países,Japão,,,,,,,,,,,,,,,,,,,,647623292,Marcos Lima,2025-09-06_13h59.48.164,ktt,2022.2.1,59.986275147471545,
,,,,3,0,3,0,5,0,5,0,,,,,,,,647623292,,,,,,,,433.5791099999333,434.06272419996094,435.56232289993204,Frutas   Países   Metais,Parentes,Tia,,,,,,,,,,,,,,,,,,,,647623292,Marcos Lima,2025-09-06_13h59.48.164,ktt,2022.2.1,59.986275147471545,
,,,,3,0,3,0,6,0,6,0,,,,,,,,647623292,,,,,,,,435.5788346999325,436.0475271999603,437.5622872998938,Frutas   Países   Metais,Cores,Azul,,,,,,,,,,,,,,,,,,,,647623292,Marcos Lima,2025-09-06_13h59.48.164,ktt,2022.2.1,59.986275147471545,
,,,,3,0,3,0,7,0,7,0,,,,,,,,647623292,,,,,,,,437.57874399994034,438.0649700999493,,Frutas   Países   Metais,Animais,Baleia,,,,,,,,,,,,,,,,,,,,647623292,Marcos Lima,2025-09-06_13h59.48.164,ktt,2022.2.1,59.986275147471545,
,,,,3,0,3,0,8,0,8,0,,,,,,,,647623292,,,,,,,,439.5795588999754,440.06189359992277,441.5640879999846,Frutas   Países   Metais,Parentes,Filha,,,,,,,,,,,,,,,,,,,,647623292,Marcos Lima,2025-09-06_13h59.48.164,ktt,2022.2.1,59.986275147471545,
,,,,3,0,3,0,9,0,9,0,,,,,,,,647623292,,,,,,,,441.5976605999749,442.0476596999215,443.56239609990735,Frutas   Países   Metais,Países,Canadá,,,,,,,,,,,,,,,,,,,,647623292,Marcos Lima,2025-09-06_13h59.48.164,ktt,2022.2.1,59.986275147471545,
,,,,3,0,3,0,10,0,10,0,,,,,,,,647623292,,,,,,,,443.59501659998205,444.06216429988854,,Frutas   Países   Metais,Metais,Alumínio,,,,,,,,,,,,,,,,,,,,647623292,Marcos Lima,2025-09-06_13h59.48.164,ktt,2022.2.1,59.986275147471545,
,,,,3,0,3,0,11,0,11,0,,,,,,,,647623292,,,,,,,,445.58203289995436,446.0483375999611,447.5632924999809,Frutas   Países   Metais,Cores,Vermelho,,,,,,,,,,,,,,,,,,,,647623292,Marcos Lima,2025-09-06_13h59.48.164,ktt,2022.2.1,59.986275147471545,
,,,,3,0,3,0,12,0,12,0,,,,,,,,647623292,,,,,,,,447.57892819994595,448.0619671999011,449.5624709998956,Frutas   Países   Metais,Metais,Ferro,,,,,,,,,,,,,,,,,,,,647623292,Marcos Lima,2025-09-06_13h59.48.164,ktt,2022.2.1,59.986275147471545,
,,,,3,0,3,0,13,0,13,0,,,,,,,,647623292,,,,,,,,449.58053879998624,450.0630147999618,,Frutas   Países   Metais,Países,Alemanha,,,,,,,,,,,,,,,,,,,,647623292,Marcos Lima,2025-09-06_13h59.48.164,ktt,2022.2.1,59.986275147471545,
,,,,3,0,3,0,14,0,14,0,,,,,,,,647623292,,,,,,,,451.5787396999076,452.0453083999455,453.5455608998891,Frutas   Países   Metais,Parentes,Pai,,,,,,,,,,,,,,,,,,,,647623292,Marcos Lima,2025-09-06_13h59.48.164,ktt,2022.2.1,59.986275147471545,
,,,,3,0,3,0,,,,,0,0,0,0,,,,647623292,,,,,,,,,,,Frutas   Países   Metais,,,453.6282619999256,453.6282619999256,453.6282619999256,453.6282619999256,3,Frutas,Maçã,Morango,Banana,Morango,2,1,0,num_1,18.966857200022787,,,,,647623292,Marcos Lima,2025-09-06_13h59.48.164,ktt,2022.2.1,59.986275147471545,
,,,,3,0,3,0,,,,,1,0,1,0,,,,647623292,,,,,,,,,,,Frutas   Países   Metais,,,472.626695199986,472.626695199986,472.626695199986,472.626695199986,3,Países,Japão,Alemanha,Canadá,Alemanha,2,2,1,num_2,0.3689796000253409,,,,,647623292,Marcos Lima,2025-09-06_13h59.48.164,ktt,2022.2.1,59.986275147471545,
,,,,3,0,3,0,,,,,2,0,2,0,,,,647623292,,,,,,,,,,,Frutas   Países   Metais,,,473.0273305999581,473.0273305999581,473.0273305999581,473.0273305999581,3,Metais,Alumínio,Ferro,Cobre,Ferro,2,3,0,num_3,0.2188177000498399,,,,,647623292,Marcos Lima,2025-09-06_13h59.48.164,ktt,2022.2.1,59.986275147471545,
,,,,3,0,3,0,,,,,,,,,,,,,,,,,,,,,,,,,,,,,,,,,,,,,,,,,,,,,647623292,Marcos Lima,2025-09-06_13h59.48.164,ktt,2022.2.1,59.986275147471545,
,,,,4,0,4,0,0,0,0,0,,,,,,,,647623292,,,,,473.2611103999661,473.2611103999661,0.0003132999408990145,475.7952051999746,476.26283729996067,,Frutas   Parentes   Metais   Países,Frutas,Maçã,,,,,,,,,,,,,,,,,,,,647623292,Marcos Lima,2025-09-06_13h59.48.164,ktt,2022.2.1,59.986275147471545,
,,,,4,0,4,0,1,0,1,0,,,,,,,,647623292,,,,,,,,477.77798759995494,478.2450927000027,479.7451744999271,Frutas   Parentes   Metais   Países,Parentes,Tia,,,,,,,,,,,,,,,,,,,,647623292,Marcos Lima,2025-09-06_13h59.48.164,ktt,2022.2.1,59.986275147471545,
,,,,4,0,4,0,2,0,2,0,,,,,,,,647623292,,,,,,,,479.7951727999607,480.2620433999691,,Frutas   Parentes   Metais   Países,Cores,Azul,,,,,,,,,,,,,,,,,,,,647623292,Marcos Lima,2025-09-06_13h59.48.164,ktt,2022.2.1,59.986275147471545,
,,,,4,0,4,0,3,0,3,0,,,,,,,,647623292,,,,,,,,481.7774067999562,482.26214079989586,483.7611334999092,Frutas   Parentes   Metais   Países,Animais,Baleia,,,,,,,,,,,,,,,,,,,,647623292,Marcos Lima,2025-09-06_13h59.48.164,ktt,2022.2.1,59.986275147471545,
,,,,4,0,4,0,4,0,4,0,,,,,,,,647623292,,,,,,,,483.7781403999543,484.2609647999052,485.7615688999649,Frutas   Parentes   Metais   Países,Frutas,Banana,,,,,,,,,,,,,,,,,,,,647623292,Marcos Lima,2025-09-06_13h59.48.164,ktt,2022.2.1,59.986275147471545,
,,,,4,0,4,0,5,0,5,0,,,,,,,,647623292,,,,,,,,485.7779454999836,486.261040299898,487.7610843000002,Frutas   Parentes   Metais   Países,Países,Alemanha,,,,,,,,,,,,,,,,,,,,647623292,Marcos Lima,2025-09-06_13h59.48.164,ktt,2022.2.1,59.986275147471545,
,,,,4,0,4,0,6,0,6,0,,,,,,,,647623292,,,,,,,,487.7769744999241,488.2614415999269,489.7619380999822,Frutas   Parentes   Metais   Países,Animais,Zebra,,,,,,,,,,,,,,,,,,,,647623292,Marcos Lima,2025-09-06_13h59.48.164,ktt,2022.2.1,59.986275147471545,
,,,,4,0,4,0,7,0,7,0,,,,,,,,647623292,,,,,,,,489.77806109993253,490.2620014999993,491.7616244999226,Frutas   Parentes   Metais   Países,Parentes,Filha,,,,,,,,,,,,,,,,,,,,647623292,Marcos Lima,2025-09-06_13h59.48.164,ktt,2022.2.1,59.986275147471545,
,,,,4,0,4,0,8,0,8,0,,,,,,,,647623292,,,,,,,,491.77825099998154,492.26087849994656,493.7606812999584,Frutas   Parentes   Metais   Países,Metais,Ferro,,,,,,,,,,,,,,,,,,,,647623292,Marcos Lima,2025-09-06_13h59.48.164,ktt,2022.2.1,59.986275147471545,
,,,,4,0,4,0,9,0,9,0,,,,,,,,647623292,,,,,,,,493.77773679990787,494.261034199968,495.7599750999361,Frutas   Parentes   Metais   Países,Países,Japão,,,,,,,,,,,,,,,,,,,,647623292,Marcos Lima,2025-09-06_13h59.48.164,ktt,2022.2.1,59.986275147471545,
,,,,4,0,4,0,10,0,10,0,,,,,,,,647623292,,,,,,,,495.77736089995597,496.2613846999593,497.7605646000011,Frutas   Parentes   Metais   Países,Cores,Vermelho,,,,,,,,,,,,,,,,,,,,647623292,Marcos Lima,2025-09-06_13h59.48.164,ktt,2022.2.1,59.986275147471545,
,,,,4,0,4,0,11,0,11,0,,,,,,,,647623292,,,,,,,,497.7779315999942,498.26052459992934,499.7600348999258,Frutas   Parentes   Metais   Países,Frutas,Morango,,,,,,,,,,,,,,,,,,,,647623292,Marcos Lima,2025-09-06_13h59.48.164,ktt,2022.2.1,59.986275147471545,
,,,,4,0,4,0,12,0,12,0,,,,,,,,647623292,,,,,,,,499.7765565000009,500.2616405999288,501.7602367999498,Frutas   Parentes   Metais   Países,Parentes,Pai,,,,,,,,,,,,,,,,,,,,647623292,Marcos Lima,2025-09-06_13h59.48.164,ktt,2022.2.1,59.986275147471545,
,,,,4,0,4,0,13,0,13,0,,,,,,,,647623292,,,,,,,,501.7770495999139,502.2622205999214,503.76055919995997,Frutas   Parentes   Metais   Países,Metais,Alumínio,,,,,,,,,,,,,,,,,,,,647623292,Marcos Lima,2025-09-06_13h59.48.164,ktt,2022.2.1,59.986275147471545,
,,,,4,0,4,0,14,0,14,0,,,,,,,,647623292,,,,,,,,503.7776582998922,504.2602375999559,505.76093909994233,Frutas   Parentes   Metais   Países,Metais,Cobre,,,,,,,,,,,,,,,,,,,,647623292,Marcos Lima,2025-09-06_13h59.48.164,ktt,2022.2.1,59.986275147471545,
,,,,4,0,4,0,,,,,0,0,0,0,,,,647623292,,,,,,,,,,,Frutas   Parentes   Metais   Países,,,505.80894389993045,505.80894389993045,505.80894389993045,505.80894389993045,4,Frutas,Banana,Morango,Maçã,Morango,2,1,0,num_1,2.0021962999599054,,,,,647623292,Marcos Lima,2025-09-06_13h59.48.164,ktt,2022.2.1,59.986275147471545,
,,,,4,0,4,0,,,,,1,0,1,0,,,,647623292,,,,,,,,,,,Frutas   Parentes   Metais   Países,,,507.8422091999091,507.8422091999091,507.8422091999091,507.8422091999091,4,Parentes,Filha,Pai,Tia,Pai,2,2,1,num_2,0.30267170001752675,,,,,647623292,Marcos Lima,2025-09-06_13h59.48.164,ktt,2022.2.1,59.986275147471545,
,,,,4,0,4,0,,,,,2,0,2,0,,,,647623292,,,,,,,,,,,Frutas   Parentes   Metais   Países,,,508.1756626999704,508.1756626999704,508.1756626999704,508.1756626999704,4,Metais,Alumínio,Cobre,Ferro,Cobre,2,3,0,num_3,0.1681930999038741,,,,,647623292,Marcos Lima,2025-09-06_13h59.48.164,ktt,2022.2.1,59.986275147471545,
,,,,4,0,4,0,,,,,3,0,3,0,,,,647623292,,,,,,,,,,,Frutas   Parentes   Metais   Países,,,508.37545729998965,508.37545729998965,508.37545729998965,508.37545729998965,4,Países,Canadá,Alemanha,Japão,Japão,3,3,1,num_3,0.41782380000222474,,,,,647623292,Marcos Lima,2025-09-06_13h59.48.164,ktt,2022.2.1,59.986275147471545,
,,,,4,0,4,0,,,,,,,,,,,,,,,,,,,,,,,,,,,,,,,,,,,,,,,,,,,,,647623292,Marcos Lima,2025-09-06_13h59.48.164,ktt,2022.2.1,59.986275147471545,
,,,,5,0,5,0,0,0,0,0,,,,,,,,647623292,,,,,508.8096872000024,508.8096872000024,0.0003765999572351575,518.8416845999891,519.3093940999825,520.8103910998907,Animais   Cores,Metais,Cobre,,,,,,,,,,,,,,,,,,,,647623292,Marcos Lima,2025-09-06_13h59.48.164,ktt,2022.2.1,59.986275147471545,
,,,,5,0,5,0,1,0,1,0,,,,,,,,647623292,,,,,,,,520.8413389999187,521.3098139999202,522.8242303999141,Animais   Cores,Metais,Alumínio,,,,,,,,,,,,,,,,,,,,647623292,Marcos Lima,2025-09-06_13h59.48.164,ktt,2022.2.1,59.986275147471545,
,,,,5,0,5,0,2,0,2,0,,,,,,,,647623292,,,,,,,,522.8410604998935,523.3248581999214,,Animais   Cores,Cores,Amarelo,,,,,,,,,,,,,,,,,,,,647623292,Marcos Lima,2025-09-06_13h59.48.164,ktt,2022.2.1,59.986275147471545,
,,,,5,0,5,0,3,0,3,0,,,,,,,,647623292,,,,,,,,525.2417236999609,525.3255532999756,,Animais   Cores,Parentes,Filha,,,,,,,,,,,,,,,,,,,,647623292,Marcos Lima,2025-09-06_13h59.48.164,ktt,2022.2.1,59.986275147471545,
,,,,5,0,5,0,4,0,4,0,,,,,,,,647623292,,,,,,,,527.1093617998995,527.8804940999253,,Animais   Cores,Frutas,Maçã,,,,,,,,,,,,,,,,,,,,647623292,Marcos Lima,2025-09-06_13h59.48.164,ktt,2022.2.1,59.986275147471545,
,,,,5,0,5,0,5,0,5,0,,,,,,,,647623292,,,,,,,,528.8576255999506,529.3245581999654,530.8259242998902,Animais   Cores,Parentes,Tia,,,,,,,,,,,,,,,,,,,,647623292,Marcos Lima,2025-09-06_13h59.48.164,ktt,2022.2.1,59.986275147471545,
,,,,5,0,5,0,6,0,6,0,,,,,,,,647623292,,,,,,,,530.8569741999963,531.323857099982,532.8243959998945,Animais   Cores,Animais,Zebra,,,,,,,,,,,,,,,,,,,,647623292,Marcos Lima,2025-09-06_13h59.48.164,ktt,2022.2.1,59.986275147471545,
,,,,5,0,5,0,7,0,7,0,,,,,,,,647623292,,,,,,,,532.8574004999828,533.3068933999166,534.807171799941,Animais   Cores,Animais,Urso,,,,,,,,,,,,,,,,,,,,647623292,Marcos Lima,2025-09-06_13h59.48.164,ktt,2022.2.1,59.986275147471545,
,,,,5,0,5,0,8,0,8,0,,,,,,,,647623292,,,,,,,,534.8412684999639,535.3259872999042,,Animais   Cores,Parentes,Pai,,,,,,,,,,,,,,,,,,,,647623292,Marcos Lima,2025-09-06_13h59.48.164,ktt,2022.2.1,59.986275147471545,
,,,,5,0,5,0,9,0,9,0,,,,,,,,647623292,,,,,,,,536.8398538999027,537.3234465999994,538.8235607999377,Animais   Cores,Países,Alemanha,,,,,,,,,,,,,,,,,,,,647623292,Marcos Lima,2025-09-06_13h59.48.164,ktt,2022.2.1,59.986275147471545,
,,,,5,0,5,0,10,0,10,0,,,,,,,,647623292,,,,,,,,538.8403024999425,539.3233036999591,540.8232489998918,Animais   Cores,Cores,Azul,,,,,,,,,,,,,,,,,,,,647623292,Marcos Lima,2025-09-06_13h59.48.164,ktt,2022.2.1,59.986275147471545,
,,,,5,0,5,0,11,0,11,0,,,,,,,,647623292,,,,,,,,540.8397105999757,541.3234433999751,542.8240652999375,Animais   Cores,Cores,Vermelho,,,,,,,,,,,,,,,,,,,,647623292,Marcos Lima,2025-09-06_13h59.48.164,ktt,2022.2.1,59.986275147471545,
,,,,5,0,5,0,12,0,12,0,,,,,,,,647623292,,,,,,,,542.8573247999884,543.3242655999493,544.8236999999499,Animais   Cores,Países,Canadá,,,,,,,,,,,,,,,,,,,,647623292,Marcos Lima,2025-09-06_13h59.48.164,ktt,2022.2.1,59.986275147471545,
,,,,5,0,5,0,13,0,13,0,,,,,,,,647623292,,,,,,,,544.8400844999123,545.3230794999981,546.8237503999844,Animais   Cores,Metais,Ferro,,,,,,,,,,,,,,,,,,,,647623292,Marcos Lima,2025-09-06_13h59.48.164,ktt,2022.2.1,59.986275147471545,
,,,,5,0,5,0,14,0,14,0,,,,,,,,647623292,,,,,,,,546.8574721999466,547.3231599999126,548.824130199966,Animais   Cores,Frutas,Banana,,,,,,,,,,,,,,,,,,,,647623292,Marcos Lima,2025-09-06_13h59.48.164,ktt,2022.2.1,59.986275147471545,
,,,,5,0,5,0,,,,,0,0,0,0,,,,647623292,,,,,,,,,,,Animais   Cores,,,548.8895426999079,548.8895426999079,548.8895426999079,548.8895426999079,2,Animais,Urso,Zebra,Baleia,Urso,1,1,1,num_1,17.26978530001361,,,,,647623292,Marcos Lima,2025-09-06_13h59.48.164,ktt,2022.2.1,59.986275147471545,
,,,,5,0,5,0,,,,,1,0,1,0,,,,647623292,,,,,,,,,,,Animais   Cores,,,566.1894143999089,566.1894143999089,566.1894143999089,566.1894143999089,2,Cores,Amarelo,Vermelho,Azul,Vermelho,2,2,1,num_2,0.11824640003032982,,,,,647623292,Marcos Lima,2025-09-06_13h59.48.164,ktt,2022.2.1,59.986275147471545,
,,,,5,0,5,0,,,,,,,,,,,,,,,,,,,,,,,,,,,,,,,,,,,,,,,,,,,,,647623292,Marcos Lima,2025-09-06_13h59.48.164,ktt,2022.2.1,59.986275147471545,
,,,,6,0,6,0,0,0,0,0,,,,,,,,647623292,,,,,566.3236064999364,566.3236064999364,0.00021269998978823423,568.2899735999526,568.7574919000035,570.2570139999734,Parentes   Cores   Metais   Animais,Metais,Cobre,,,,,,,,,,,,,,,,,,,,647623292,Marcos Lima,2025-09-06_13h59.48.164,ktt,2022.2.1,59.986275147471545,
,,,,6,0,6,0,1,0,1,0,,,,,,,,647623292,,,,,,,,570.2904848000035,570.757834799937,572.2582235999871,Parentes   Cores   Metais   Animais,Frutas,Banana,,,,,,,,,,,,,,,,,,,,647623292,Marcos Lima,2025-09-06_13h59.48.164,ktt,2022.2.1,59.986275147471545,
,,,,6,0,6,0,2,0,2,0,,,,,,,,647623292,,,,,,,,572.2895898999413,572.7732224999927,574.2737795999274,Parentes   Cores   Metais   Animais,Países,Japão,,,,,,,,,,,,,,,,,,,,647623292,Marcos Lima,2025-09-06_13h59.48.164,ktt,2022.2.1,59.986275147471545,
,,,,6,0,6,0,3,0,3,0,,,,,,,,647623292,,,,,,,,574.2894919998944,574.773535199929,,Parentes   Cores   Metais   Animais,Metais,Ferro,,,,,,,,,,,,,,,,,,,,647623292,Marcos Lima,2025-09-06_13h59.48.164,ktt,2022.2.1,59.986275147471545,
,,,,6,0,6,0,4,0,4,0,,,,,,,,647623292,,,,,,,,576.2897212998942,576.7580341999419,578.2728862999938,Parentes   Cores   Metais   Animais,Cores,Amarelo,,,,,,,,,,,,,,,,,,,,647623292,Marcos Lima,2025-09-06_13h59.48.164,ktt,2022.2.1,59.986275147471545,
,,,,6,0,6,0,5,0,5,0,,,,,,,,647623292,,,,,,,,578.28991949989,578.7735502999276,580.2736619999632,Parentes   Cores   Metais   Animais,Animais,Zebra,,,,,,,,,,,,,,,,,,,,647623292,Marcos Lima,2025-09-06_13h59.48.164,ktt,2022.2.1,59.986275147471545,
,,,,6,0,6,0,6,0,6,0,,,,,,,,647623292,,,,,,,,580.2894612998934,580.7734425999224,582.2726665999508,Parentes   Cores   Metais   Animais,Animais,Urso,,,,,,,,,,,,,,,,,,,,647623292,Marcos Lima,2025-09-06_13h59.48.164,ktt,2022.2.1,59.986275147471545,
,,,,6,0,6,0,7,0,7,0,,,,,,,,647623292,,,,,,,,582.2895952999825,582.7740873999428,,Parentes   Cores   Metais   Animais,Cores,Vermelho,,,,,,,,,,,,,,,,,,,,647623292,Marcos Lima,2025-09-06_13h59.48.164,ktt,2022.2.1,59.986275147471545,
,,,,6,0,6,0,8,0,8,0,,,,,,,,647623292,,,,,,,,584.289296999923,584.7736606999533,586.2736468999647,Parentes   Cores   Metais   Animais,Metais,Alumínio,,,,,,,,,,,,,,,,,,,,647623292,Marcos Lima,2025-09-06_13h59.48.164,ktt,2022.2.1,59.986275147471545,
,,,,6,0,6,0,9,0,9,0,,,,,,,,647623292,,,,,,,,586.2895203999942,586.7724984999513,588.2736832998926,Parentes   Cores   Metais   Animais,Parentes,Tia,,,,,,,,,,,,,,,,,,,,647623292,Marcos Lima,2025-09-06_13h59.48.164,ktt,2022.2.1,59.986275147471545,
,,,,6,0,6,0,10,0,10,0,,,,,,,,647623292,,,,,,,,588.2914680999238,588.7728795999428,590.2726791999303,Parentes   Cores   Metais   Animais,Animais,Baleia,,,,,,,,,,,,,,,,,,,,647623292,Marcos Lima,2025-09-06_13h59.48.164,ktt,2022.2.1,59.986275147471545,
,,,,6,0,6,0,11,0,11,0,,,,,,,,647623292,,,,,,,,590.2891850000015,590.773226399906,,Parentes   Cores   Metais   Animais,Países,Canadá,,,,,,,,,,,,,,,,,,,,647623292,Marcos Lima,2025-09-06_13h59.48.164,ktt,2022.2.1,59.986275147471545,
,,,,6,0,6,0,12,0,12,0,,,,,,,,647623292,,,,,,,,592.2892118999735,592.7736153999576,,Parentes   Cores   Metais   Animais,Parentes,Filha,,,,,,,,,,,,,,,,,,,,647623292,Marcos Lima,2025-09-06_13h59.48.164,ktt,2022.2.1,59.986275147471545,
,,,,6,0,6,0,13,0,13,0,,,,,,,,647623292,,,,,,,,594.2893858999014,594.7729922999861,596.2720593999838,Parentes   Cores   Metais   Animais,Frutas,Morango,,,,,,,,,,,,,,,,,,,,647623292,Marcos Lima,2025-09-06_13h59.48.164,ktt,2022.2.1,59.986275147471545,
,,,,6,0,6,0,14,0,14,0,,,,,,,,647623292,,,,,,,,596.2881444999948,596.7723840998951,598.272743199952,Parentes   Cores   Metais   Animais,Frutas,Maçã,,,,,,,,,,,,,,,,,,,,647623292,Marcos Lima,2025-09-06_13h59.48.164,ktt,2022.2.1,59.986275147471545,
,,,,6,0,6,0,,,,,0,0,0,0,,,,647623292,,,,,,,,,,,Parentes   Cores   Metais   Animais,,,598.3215328999795,598.3215328999795,598.3215328999795,598.3215328999795,4,Parentes,Pai,Filha,Tia,Filha,2,1,0,num_1,8.751024299999699,,,,,647623292,Marcos Lima,2025-09-06_13h59.48.164,ktt,2022.2.1,59.986275147471545,
,,,,6,0,6,0,,,,,1,0,1,0,,,,647623292,,,,,,,,,,,Parentes   Cores   Metais   Animais,,,607.1042392998934,607.1042392998934,607.1042392998934,607.1042392998934,4,Cores,Vermelho,Amarelo,Azul,Vermelho,1,1,1,num_1,0.3014758999925107,,,,,647623292,Marcos Lima,2025-09-06_13h59.48.164,ktt,2022.2.1,59.986275147471545,
,,,,6,0,6,0,,,,,2,0,2,0,,,,647623292,,,,,,,,,,,Parentes   Cores   Metais   Animais,,,607.4216308000032,607.4216308000032,607.4216308000032,607.4216308000032,4,Metais,Alumínio,Cobre,Ferro,Alumínio,1,2,0,num_2,0.14972740004304796,,,,,647623292,Marcos Lima,2025-09-06_13h59.48.164,ktt,2022.2.1,59.986275147471545,
,,,,6,0,6,0,,,,,3,0,3,0,,,,647623292,,,,,,,,,,,Parentes   Cores   Metais   Animais,,,607.5878459999803,607.5878459999803,607.5878459999803,607.5878459999803,4,Animais,Urso,Baleia,Zebra,Baleia,2,3,0,num_3,0.18396629998460412,,,,,647623292,Marcos Lima,2025-09-06_13h59.48.164,ktt,2022.2.1,59.986275147471545,
,,,,6,0,6,0,,,,,,,,,,,,,,,,,,,,,,,,,,,,,,,,,,,,,,,,,,,,,647623292,Marcos Lima,2025-09-06_13h59.48.164,ktt,2022.2.1,59.986275147471545,
,,,,7,0,7,0,0,0,0,0,,,,,,,,647623292,,,,,607.7878842999926,607.7878842999926,0.00024149997625499964,609.8205837999703,610.2888408999424,611.7879232999403,Cores   Parentes   Países   Frutas,Metais,Alumínio,,,,,,,,,,,,,,,,,,,,647623292,Marcos Lima,2025-09-06_13h59.48.164,ktt,2022.2.1,59.986275147471545,
,,,,7,0,7,0,1,0,1,0,,,,,,,,647623292,,,,,,,,611.8210214999272,612.3043272999348,613.8043554999167,Cores   Parentes   Países   Frutas,Frutas,Banana,,,,,,,,,,,,,,,,,,,,647623292,Marcos Lima,2025-09-06_13h59.48.164,ktt,2022.2.1,59.986275147471545,
,,,,7,0,7,0,2,0,2,0,,,,,,,,647623292,,,,,,,,613.8212612998905,614.2882945999736,615.788149699918,Cores   Parentes   Países   Frutas,Animais,Urso,,,,,,,,,,,,,,,,,,,,647623292,Marcos Lima,2025-09-06_13h59.48.164,ktt,2022.2.1,59.986275147471545,
,,,,7,0,7,0,3,0,3,0,,,,,,,,647623292,,,,,,,,615.8213598999428,616.2886013999814,617.7877959999023,Cores   Parentes   Países   Frutas,Cores,Azul,,,,,,,,,,,,,,,,,,,,647623292,Marcos Lima,2025-09-06_13h59.48.164,ktt,2022.2.1,59.986275147471545,
,,,,7,0,7,0,4,0,4,0,,,,,,,,647623292,,,,,,,,617.8210673999274,618.30424759991,619.8040980999358,Cores   Parentes   Países   Frutas,Parentes,Filha,,,,,,,,,,,,,,,,,,,,647623292,Marcos Lima,2025-09-06_13h59.48.164,ktt,2022.2.1,59.986275147471545,
,,,,7,0,7,0,5,0,5,0,,,,,,,,647623292,,,,,,,,619.8213589999359,620.3035831999732,621.8044514999492,Cores   Parentes   Países   Frutas,Cores,Vermelho,,,,,,,,,,,,,,,,,,,,647623292,Marcos Lima,2025-09-06_13h59.48.164,ktt,2022.2.1,59.986275147471545,
,,,,7,0,7,0,6,0,6,0,,,,,,,,647623292,,,,,,,,621.8210253999569,622.3038663999178,623.8039712999016,Cores   Parentes   Países   Frutas,Países,Japão,,,,,,,,,,,,,,,,,,,,647623292,Marcos Lima,2025-09-06_13h59.48.164,ktt,2022.2.1,59.986275147471545,
,,,,7,0,7,0,7,0,7,0,,,,,,,,647623292,,,,,,,,623.8213765999535,624.2896489999257,625.807036299957,Cores   Parentes   Países   Frutas,Países,Alemanha,,,,,,,,,,,,,,,,,,,,647623292,Marcos Lima,2025-09-06_13h59.48.164,ktt,2022.2.1,59.986275147471545,
,,,,7,0,7,0,8,0,8,0,,,,,,,,647623292,,,,,,,,625.8216159999138,626.2888299999759,627.803181599942,Cores   Parentes   Países   Frutas,Frutas,Maçã,,,,,,,,,,,,,,,,,,,,647623292,Marcos Lima,2025-09-06_13h59.48.164,ktt,2022.2.1,59.986275147471545,
,,,,7,0,7,0,9,0,9,0,,,,,,,,647623292,,,,,,,,627.8201590999961,628.3036551999394,629.8036755999783,Cores   Parentes   Países   Frutas,Parentes,Tia,,,,,,,,,,,,,,,,,,,,647623292,Marcos Lima,2025-09-06_13h59.48.164,ktt,2022.2.1,59.986275147471545,
,,,,7,0,7,0,10,0,10,0,,,,,,,,647623292,,,,,,,,629.8195576999569,630.3049249999458,,Cores   Parentes   Países   Frutas,Países,Canadá,,,,,,,,,,,,,,,,,,,,647623292,Marcos Lima,2025-09-06_13h59.48.164,ktt,2022.2.1,59.986275147471545,
,,,,7,0,7,0,11,0,11,0,,,,,,,,647623292,,,,,,,,631.8370145999361,632.3024685999844,633.802421099972,Cores   Parentes   Países   Frutas,Metais,Cobre,,,,,,,,,,,,,,,,,,,,647623292,Marcos Lima,2025-09-06_13h59.48.164,ktt,2022.2.1,59.986275147471545,
,,,,7,0,7,0,12,0,12,0,,,,,,,,647623292,,,,,,,,633.819083099952,634.3026699000038,635.804350499995,Cores   Parentes   Países   Frutas,Frutas,Morango,,,,,,,,,,,,,,,,,,,,647623292,Marcos Lima,2025-09-06_13h59.48.164,ktt,2022.2.1,59.986275147471545,
,,,,7,0,7,0,13,0,13,0,,,,,,,,647623292,,,,,,,,635.8189927999629,636.2879424999701,637.8071600999683,Cores   Parentes   Países   Frutas,Animais,Zebra,,,,,,,,,,,,,,,,,,,,647623292,Marcos Lima,2025-09-06_13h59.48.164,ktt,2022.2.1,59.986275147471545,
,,,,7,0,7,0,14,0,14,0,,,,,,,,647623292,,,,,,,,637.8196747999173,638.3058685999131,,Cores   Parentes   Países   Frutas,Metais,Ferro,,,,,,,,,,,,,,,,,,,,647623292,Marcos Lima,2025-09-06_13h59.48.164,ktt,2022.2.1,59.986275147471545,
,,,,7,0,7,0,,,,,0,0,0,0,,,,647623292,,,,,,,,,,,Cores   Parentes   Países   Frutas,,,639.8866326999851,639.8866326999851,639.8866326999851,639.8866326999851,4,Cores,Amarelo,Azul,Vermelho,Vermelho,3,1,0,num_1,41.83627550001256,,,,,647623292,Marcos Lima,2025-09-06_13h59.48.164,ktt,2022.2.1,59.986275147471545,
,,,,7,0,7,0,,,,,1,0,1,0,,,,647623292,,,,,,,,,,,Cores   Parentes   Países   Frutas,,,681.7673178999685,681.7673178999685,681.7673178999685,681.7673178999685,4,Parentes,Filha,Tia,Pai,Tia,2,2,1,num_2,0.4023651999887079,,,,,647623292,Marcos Lima,2025-09-06_13h59.48.164,ktt,2022.2.1,59.986275147471545,
,,,,7,0,7,0,,,,,2,0,2,0,,,,647623292,,,,,,,,,,,Cores   Parentes   Países   Frutas,,,682.2013702999102,682.2013702999102,682.2013702999102,682.2013702999102,4,Países,Alemanha,Canadá,Japão,Canadá,2,3,0,num_3,0.20176640001591295,,,,,647623292,Marcos Lima,2025-09-06_13h59.48.164,ktt,2022.2.1,59.986275147471545,
,,,,7,0,7,0,,,,,3,0,3,0,,,,647623292,,,,,,,,,,,Cores   Parentes   Países   Frutas,,,682.4340809999267,682.4340809999267,682.4340809999267,682.4340809999267,4,Frutas,Banana,Morango,Maçã,Morango,2,1,0,num_1,0.5200496999314055,,,,,647623292,Marcos Lima,2025-09-06_13h59.48.164,ktt,2022.2.1,59.986275147471545,
,,,,7,0,7,0,,,,,,,,,,,,,,,,,,,,,,,,,,,,,,,,,,,,,,,,,,,,,647623292,Marcos Lima,2025-09-06_13h59.48.164,ktt,2022.2.1,59.986275147471545,
,,,,8,0,8,0,0,0,0,0,,,,,,,,647623292,,,,,682.970339499996,682.970339499996,0.0005893000634387136,684.4173348998884,684.8859287999803,686.3869400999974,Animais   Frutas,Países,Japão,,,,,,,,,,,,,,,,,,,,647623292,Marcos Lima,2025-09-06_13h59.48.164,ktt,2022.2.1,59.986275147471545,
,,,,8,0,8,0,1,0,1,0,,,,,,,,647623292,,,,,,,,686.4182392999064,686.8864735999377,688.3851421999279,Animais   Frutas,Metais,Cobre,,,,,,,,,,,,,,,,,,,,647623292,Marcos Lima,2025-09-06_13h59.48.164,ktt,2022.2.1,59.986275147471545,
,,,,8,0,8,0,2,0,2,0,,,,,,,,647623292,,,,,,,,688.4015930999303,688.8858834999846,,Animais   Frutas,Frutas,Banana,,,,,,,,,,,,,,,,,,,,647623292,Marcos Lima,2025-09-06_13h59.48.164,ktt,2022.2.1,59.986275147471545,
,,,,8,0,8,0,3,0,3,0,,,,,,,,647623292,,,,,,,,690.4169810999883,690.8846882999642,692.3843306999188,Animais   Frutas,Metais,Alumínio,,,,,,,,,,,,,,,,,,,,647623292,Marcos Lima,2025-09-06_13h59.48.164,ktt,2022.2.1,59.986275147471545,
,,,,8,0,8,0,4,0,4,0,,,,,,,,647623292,,,,,,,,692.401570099988,692.8855218999088,694.3846285999753,Animais   Frutas,Cores,Amarelo,,,,,,,,,,,,,,,,,,,,647623292,Marcos Lima,2025-09-06_13h59.48.164,ktt,2022.2.1,59.986275147471545,
,,,,8,0,8,0,5,0,5,0,,,,,,,,647623292,,,,,,,,694.4016262999503,694.8856018999359,696.3851370998891,Animais   Frutas,Países,Alemanha,,,,,,,,,,,,,,,,,,,,647623292,Marcos Lima,2025-09-06_13h59.48.164,ktt,2022.2.1,59.986275147471545,
,,,,8,0,8,0,6,0,6,0,,,,,,,,647623292,,,,,,,,696.4165609999327,696.885330799967,698.3849426999222,Animais   Frutas,Parentes,Tia,,,,,,,,,,,,,,,,,,,,647623292,Marcos Lima,2025-09-06_13h59.48.164,ktt,2022.2.1,59.986275147471545,
,,,,8,0,8,0,7,0,7,0,,,,,,,,647623292,,,,,,,,698.4170252999756,698.8689997999463,700.3687630998902,Animais   Frutas,Cores,Vermelho,,,,,,,,,,,,,,,,,,,,647623292,Marcos Lima,2025-09-06_13h59.48.164,ktt,2022.2.1,59.986275147471545,
,,,,8,0,8,0,8,0,8,0,,,,,,,,647623292,,,,,,,,700.4222335999366,700.8686949999537,702.3662283999147,Animais   Frutas,Cores,Azul,,,,,,,,,,,,,,,,,,,,647623292,Marcos Lima,2025-09-06_13h59.48.164,ktt,2022.2.1,59.986275147471545,
,,,,8,0,8,0,9,0,9,0,,,,,,,,647623292,,,,,,,,702.3994128999766,702.8845166999381,704.3838707999093,Animais   Frutas,Parentes,Pai,,,,,,,,,,,,,,,,,,,,647623292,Marcos Lima,2025-09-06_13h59.48.164,ktt,2022.2.1,59.986275147471545,
,,,,8,0,8,0,10,0,10,0,,,,,,,,647623292,,,,,,,,704.4021864999086,704.8865514999488,,Animais   Frutas,Metais,Ferro,,,,,,,,,,,,,,,,,,,,647623292,Marcos Lima,2025-09-06_13h59.48.164,ktt,2022.2.1,59.986275147471545,
,,,,8,0,8,0,11,0,11,0,,,,,,,,647623292,,,,,,,,706.4004547999939,706.8836724999128,708.382649499923,Animais   Frutas,Parentes,Filha,,,,,,,,,,,,,,,,,,,,647623292,Marcos Lima,2025-09-06_13h59.48.164,ktt,2022.2.1,59.986275147471545,
,,,,8,0,8,0,12,0,12,0,,,,,,,,647623292,,,,,,,,708.4157841999549,708.8830684999702,710.3822653999086,Animais   Frutas,Frutas,Morango,,,,,,,,,,,,,,,,,,,,647623292,Marcos Lima,2025-09-06_13h59.48.164,ktt,2022.2.1,59.986275147471545,
,,,,8,0,8,0,13,0,13,0,,,,,,,,647623292,,,,,,,,710.398893399979,710.8833493998973,,Animais   Frutas,Animais,Zebra,,,,,,,,,,,,,,,,,,,,647623292,Marcos Lima,2025-09-06_13h59.48.164,ktt,2022.2.1,59.986275147471545,
,,,,8,0,8,0,14,0,14,0,,,,,,,,647623292,,,,,,,,712.3991074999794,712.8826154998969,714.3823637999594,Animais   Frutas,Animais,Baleia,,,,,,,,,,,,,,,,,,,,647623292,Marcos Lima,2025-09-06_13h59.48.164,ktt,2022.2.1,59.986275147471545,
,,,,8,0,8,0,,,,,0,0,0,0,,,,647623292,,,,,,,,,,,Animais   Frutas,,,714.4483470999403,714.4483470999403,714.4483470999403,714.4483470999403,2,Animais,Zebra,Urso,Baleia,Baleia,3,1,0,num_1,14.134543900028802,,,,,647623292,Marcos Lima,2025-09-06_13h59.48.164,ktt,2022.2.1,59.986275147471545,
,,,,8,0,8,0,,,,,1,0,1,0,,,,647623292,,,,,,,,,,,Animais   Frutas,,,728.6144718999276,728.6144718999276,728.6144718999276,728.6144718999276,2,Frutas,Banana,Morango,Maçã,Morango,2,2,1,num_2,0.18497340008616447,,,,,647623292,Marcos Lima,2025-09-06_13h59.48.164,ktt,2022.2.1,59.986275147471545,
,,,,8,0,8,0,,,,,,,,,,,,,,,,,,,,,,,,,,,,,,,,,,,,,,,,,,,,,647623292,Marcos Lima,2025-09-06_13h59.48.164,ktt,2022.2.1,59.986275147471545,
,,,,9,0,9,0,0,0,0,0,,,,,,,,647623292,,,,,728.8158795998897,728.8158795998897,0.0002484000287950039,730.1977349999361,730.667306499905,732.1664653999032,Países   Frutas   Metais,Países,Canadá,,,,,,,,,,,,,,,,,,,,647623292,Marcos Lima,2025-09-06_13h59.48.164,ktt,2022.2.1,59.986275147471545,
,,,,9,0,9,0,1,0,1,0,,,,,,,,647623292,,,,,,,,732.1983491999563,732.6650598999113,734.1648167999228,Países   Frutas   Metais,Países,Alemanha,,,,,,,,,,,,,,,,,,,,647623292,Marcos Lima,2025-09-06_13h59.48.164,ktt,2022.2.1,59.986275147471545,
,,,,9,0,9,0,2,0,2,0,,,,,,,,647623292,,,,,,,,734.1811943999492,734.6646079999628,736.1650571998907,Países   Frutas   Metais,Parentes,Filha,,,,,,,,,,,,,,,,,,,,647623292,Marcos Lima,2025-09-06_13h59.48.164,ktt,2022.2.1,59.986275147471545,
,,,,9,0,9,0,3,0,3,0,,,,,,,,647623292,,,,,,,,736.1815627999604,736.6643755999394,738.1642689999426,Países   Frutas   Metais,Animais,Urso,,,,,,,,,,,,,,,,,,,,647623292,Marcos Lima,2025-09-06_13h59.48.164,ktt,2022.2.1,59.986275147471545,
,,,,9,0,9,0,4,0,4,0,,,,,,,,647623292,,,,,,,,738.180588999996,738.6653708999511,,Países   Frutas   Metais,Frutas,Morango,,,,,,,,,,,,,,,,,,,,647623292,Marcos Lima,2025-09-06_13h59.48.164,ktt,2022.2.1,59.986275147471545,
,,,,9,0,9,0,5,0,5,0,,,,,,,,647623292,,,,,,,,740.1821056999033,740.66465959989,742.163920699968,Países   Frutas   Metais,Frutas,Maçã,,,,,,,,,,,,,,,,,,,,647623292,Marcos Lima,2025-09-06_13h59.48.164,ktt,2022.2.1,59.986275147471545,
,,,,9,0,9,0,6,0,6,0,,,,,,,,647623292,,,,,,,,742.1803429999854,742.6640731999651,744.1652214999776,Países   Frutas   Metais,Metais,Alumínio,,,,,,,,,,,,,,,,,,,,647623292,Marcos Lima,2025-09-06_13h59.48.164,ktt,2022.2.1,59.986275147471545,
,,,,9,0,9,0,7,0,7,0,,,,,,,,647623292,,,,,,,,744.181455199956,744.6662440999644,,Países   Frutas   Metais,Parentes,Tia,,,,,,,,,,,,,,,,,,,,647623292,Marcos Lima,2025-09-06_13h59.48.164,ktt,2022.2.1,59.986275147471545,
,,,,9,0,9,0,8,0,8,0,,,,,,,,647623292,,,,,,,,746.1802031999687,746.6651538999286,,Países   Frutas   Metais,Parentes,Pai,,,,,,,,,,,,,,,,,,,,647623292,Marcos Lima,2025-09-06_13h59.48.164,ktt,2022.2.1,59.986275147471545,
,,,,9,0,9,0,9,0,9,0,,,,,,,,647623292,,,,,,,,748.1811254998902,748.6644580999855,750.1642132999841,Países   Frutas   Metais,Cores,Vermelho,,,,,,,,,,,,,,,,,,,,647623292,Marcos Lima,2025-09-06_13h59.48.164,ktt,2022.2.1,59.986275147471545,
,,,,9,0,9,0,10,0,10,0,,,,,,,,647623292,,,,,,,,750.1973108999664,750.6637031999417,752.1638252999401,Países   Frutas   Metais,Metais,Cobre,,,,,,,,,,,,,,,,,,,,647623292,Marcos Lima,2025-09-06_13h59.48.164,ktt,2022.2.1,59.986275147471545,
,,,,9,0,9,0,11,0,11,0,,,,,,,,647623292,,,,,,,,752.180218399968,752.6641789999558,754.163419199991,Países   Frutas   Metais,Metais,Ferro,,,,,,,,,,,,,,,,,,,,647623292,Marcos Lima,2025-09-06_13h59.48.164,ktt,2022.2.1,59.986275147471545,
,,,,9,0,9,0,12,0,12,0,,,,,,,,647623292,,,,,,,,754.180424699909,754.6633074999554,756.1644844999537,Países   Frutas   Metais,Cores,Amarelo,,,,,,,,,,,,,,,,,,,,647623292,Marcos Lima,2025-09-06_13h59.48.164,ktt,2022.2.1,59.986275147471545,
,,,,9,0,9,0,13,0,13,0,,,,,,,,647623292,,,,,,,,756.2158935999032,756.663679099991,758.1639215999749,Países   Frutas   Metais,Cores,Azul,,,,,,,,,,,,,,,,,,,,647623292,Marcos Lima,2025-09-06_13h59.48.164,ktt,2022.2.1,59.986275147471545,
,,,,9,0,9,0,14,0,14,0,,,,,,,,647623292,,,,,,,,758.1798739999067,758.6628903999226,760.1643443999346,Países   Frutas   Metais,Animais,Baleia,,,,,,,,,,,,,,,,,,,,647623292,Marcos Lima,2025-09-06_13h59.48.164,ktt,2022.2.1,59.986275147471545,
,,,,9,0,9,0,,,,,0,0,0,0,,,,647623292,,,,,,,,,,,Países   Frutas   Metais,,,760.2466389999026,760.2466389999026,760.2466389999026,760.2466389999026,3,Países,Canadá,Japão,Alemanha,Alemanha,3,1,0,num_1,5.7683655000291765,,,,,647623292,Marcos Lima,2025-09-06_13h59.48.164,ktt,2022.2.1,59.986275147471545,
,,,,9,0,9,0,,,,,1,0,1,0,,,,647623292,,,,,,,,,,,Países   Frutas   Metais,,,766.0464829999255,766.0464829999255,766.0464829999255,766.0464829999255,3,Frutas,Morango,Maçã,Banana,Maçã,2,2,1,num_2,0.2697713999077678,,,,,647623292,Marcos Lima,2025-09-06_13h59.48.164,ktt,2022.2.1,59.986275147471545,
,,,,9,0,9,0,,,,,2,0,2,0,,,,647623292,,,,,,,,,,,Países   Frutas   Metais,,,766.3458737999899,766.3458737999899,766.3458737999899,766.3458737999899,3,Metais,Cobre,Alumínio,Ferro,Ferro,3,3,1,num_3,0.25546190002933145,,,,,647623292,Marcos Lima,2025-09-06_13h59.48.164,ktt,2022.2.1,59.986275147471545,
,,,,9,0,9,0,,,,,,,,,,,,,,,,,,,,,,,,,,,,,,,,,,,,,,,,,,,,,647623292,Marcos Lima,2025-09-06_13h59.48.164,ktt,2022.2.1,59.986275147471545,
,,,,10,0,10,0,0,0,0,0,,,,,,,,647623292,,,,,766.6136137999129,766.6136137999129,0.0007603999692946672,767.7797040999867,768.2499173999531,769.7483675999101,Cores   Frutas   Parentes,Países,Alemanha,,,,,,,,,,,,,,,,,,,,647623292,Marcos Lima,2025-09-06_13h59.48.164,ktt,2022.2.1,59.986275147471545,
,,,,10,0,10,0,1,0,1,0,,,,,,,,647623292,,,,,,,,769.780466999975,770.3321558999596,,Cores   Frutas   Parentes,Frutas,Maçã,,,,,,,,,,,,,,,,,,,,647623292,Marcos Lima,2025-09-06_13h59.48.164,ktt,2022.2.1,59.986275147471545,
,,,,10,0,10,0,2,0,2,0,,,,,,,,647623292,,,,,,,,771.7628205999499,772.3305443999125,,Cores   Frutas   Parentes,Cores,Azul,,,,,,,,,,,,,,,,,,,,647623292,Marcos Lima,2025-09-06_13h59.48.164,ktt,2022.2.1,59.986275147471545,
,,,,10,0,10,0,3,0,3,0,,,,,,,,647623292,,,,,,,,773.7626436999999,774.2457519999007,775.7478200999321,Cores   Frutas   Parentes,Parentes,Tia,,,,,,,,,,,,,,,,,,,,647623292,Marcos Lima,2025-09-06_13h59.48.164,ktt,2022.2.1,59.986275147471545,
,,,,10,0,10,0,4,0,4,0,,,,,,,,647623292,,,,,,,,775.763466799981,776.2456056999508,,Cores   Frutas   Parentes,Parentes,Pai,,,,,,,,,,,,,,,,,,,,647623292,Marcos Lima,2025-09-06_13h59.48.164,ktt,2022.2.1,59.986275147471545,
,,,,10,0,10,0,5,0,5,0,,,,,,,,647623292,,,,,,,,777.7854198999703,778.2461026998935,779.7473088999977,Cores   Frutas   Parentes,Frutas,Banana,,,,,,,,,,,,,,,,,,,,647623292,Marcos Lima,2025-09-06_13h59.48.164,ktt,2022.2.1,59.986275147471545,
,,,,10,0,10,0,6,0,6,0,,,,,,,,647623292,,,,,,,,779.7823593999492,780.245515299961,781.7462179999566,Cores   Frutas   Parentes,Cores,Amarelo,,,,,,,,,,,,,,,,,,,,647623292,Marcos Lima,2025-09-06_13h59.48.164,ktt,2022.2.1,59.986275147471545,
,,,,10,0,10,0,7,0,7,0,,,,,,,,647623292,,,,,,,,781.7650436999975,782.2300683999201,783.7291478998959,Cores   Frutas   Parentes,Metais,Ferro,,,,,,,,,,,,,,,,,,,,647623292,Marcos Lima,2025-09-06_13h59.48.164,ktt,2022.2.1,59.986275147471545,
,,,,10,0,10,0,8,0,8,0,,,,,,,,647623292,,,,,,,,783.7621895999182,784.2455631999765,785.7460561998887,Cores   Frutas   Parentes,Animais,Zebra,,,,,,,,,,,,,,,,,,,,647623292,Marcos Lima,2025-09-06_13h59.48.164,ktt,2022.2.1,59.986275147471545,
,,,,10,0,10,0,9,0,9,0,,,,,,,,647623292,,,,,,,,785.7667067999719,786.246765299933,,Cores   Frutas   Parentes,Parentes,Filha,,,,,,,,,,,,,,,,,,,,647623292,Marcos Lima,2025-09-06_13h59.48.164,ktt,2022.2.1,59.986275147471545,
,,,,10,0,10,0,10,0,10,0,,,,,,,,647623292,,,,,,,,787.7627111999318,788.246683599893,789.7451046999777,Cores   Frutas   Parentes,Animais,Urso,,,,,,,,,,,,,,,,,,,,647623292,Marcos Lima,2025-09-06_13h59.48.164,ktt,2022.2.1,59.986275147471545,
,,,,10,0,10,0,11,0,11,0,,,,,,,,647623292,,,,,,,,789.7620922999922,790.2463437999832,791.7456185999326,Cores   Frutas   Parentes,Animais,Baleia,,,,,,,,,,,,,,,,,,,,647623292,Marcos Lima,2025-09-06_13h59.48.164,ktt,2022.2.1,59.986275147471545,
,,,,10,0,10,0,12,0,12,0,,,,,,,,647623292,,,,,,,,791.7787742998917,792.245681899949,793.7484026999446,Cores   Frutas   Parentes,Metais,Alumínio,,,,,,,,,,,,,,,,,,,,647623292,Marcos Lima,2025-09-06_13h59.48.164,ktt,2022.2.1,59.986275147471545,
,,,,10,0,10,0,13,0,13,0,,,,,,,,647623292,,,,,,,,793.7799408999272,794.2454263999825,795.7466080999002,Cores   Frutas   Parentes,Países,Canadá,,,,,,,,,,,,,,,,,,,,647623292,Marcos Lima,2025-09-06_13h59.48.164,ktt,2022.2.1,59.986275147471545,
,,,,10,0,10,0,14,0,14,0,,,,,,,,647623292,,,,,,,,795.7634456999367,796.2477818999905,,Cores   Frutas   Parentes,Frutas,Morango,,,,,,,,,,,,,,,,,,,,647623292,Marcos Lima,2025-09-06_13h59.48.164,ktt,2022.2.1,59.986275147471545,
,,,,10,0,10,0,,,,,0,0,0,0,,,,647623292,,,,,,,,,,,Cores   Frutas   Parentes,,,797.8112573999679,797.8112573999679,797.8112573999679,797.8112573999679,3,Cores,Vermelho,Amarelo,Azul,Amarelo,2,1,0,num_1,14.201520400005393,,,,,647623292,Marcos Lima,2025-09-06_13h59.48.164,ktt,2022.2.1,59.986275147471545,
,,,,10,0,10,0,,,,,1,0,1,0,,,,647623292,,,,,,,,,,,Cores   Frutas   Parentes,,,812.0451246999437,812.0451246999437,812.0451246999437,812.0451246999437,3,Frutas,Banana,Maçã,Morango,Morango,3,2,0,num_2,0.15046829998027533,,,,,647623292,Marcos Lima,2025-09-06_13h59.48.164,ktt,2022.2.1,59.986275147471545,
,,,,10,0,10,0,,,,,2,0,2,0,,,,647623292,,,,,,,,,,,Cores   Frutas   Parentes,,,812.2274835999124,812.2274835999124,812.2274835999124,812.2274835999124,3,Parentes,Pai,Tia,Filha,Filha,3,3,1,num_3,0.1521536000072956,,,,,647623292,Marcos Lima,2025-09-06_13h59.48.164,ktt,2022.2.1,59.986275147471545,
,,,,10,0,10,0,,,,,,,,,,,,,,,,,,,,,,,,,,,,,,,,,,,,,,,,,,,,,647623292,Marcos Lima,2025-09-06_13h59.48.164,ktt,2022.2.1,59.986275147471545,
,,,,11,0,11,0,0,0,0,0,,,,,,,,647623292,,,,,812.3949559999164,812.3949559999164,0.0003971999976783991,813.8608804999385,814.3114578999812,815.8108884999529,Parentes   Frutas,Animais,Baleia,,,,,,,,,,,,,,,,,,,,647623292,Marcos Lima,2025-09-06_13h59.48.164,ktt,2022.2.1,59.986275147471545,
,,,,11,0,11,0,1,0,1,0,,,,,,,,647623292,,,,,,,,815.844468700001,816.3272385000018,817.8268463999266,Parentes   Frutas,Países,Japão,,,,,,,,,,,,,,,,,,,,647623292,Marcos Lima,2025-09-06_13h59.48.164,ktt,2022.2.1,59.986275147471545,
,,,,11,0,11,0,2,0,2,0,,,,,,,,647623292,,,,,,,,817.8446860999102,818.3274972999934,819.8275487999199,Parentes   Frutas,Metais,Cobre,,,,,,,,,,,,,,,,,,,,647623292,Marcos Lima,2025-09-06_13h59.48.164,ktt,2022.2.1,59.986275147471545,
,,,,11,0,11,0,3,0,3,0,,,,,,,,647623292,,,,,,,,819.8600610999856,820.311668899958,821.8266389999771,Parentes   Frutas,Frutas,Morango,,,,,,,,,,,,,,,,,,,,647623292,Marcos Lima,2025-09-06_13h59.48.164,ktt,2022.2.1,59.986275147471545,
,,,,11,0,11,0,4,0,4,0,,,,,,,,647623292,,,,,,,,821.8441093999427,822.326933199889,823.827602299978,Parentes   Frutas,Animais,Urso,,,,,,,,,,,,,,,,,,,,647623292,Marcos Lima,2025-09-06_13h59.48.164,ktt,2022.2.1,59.986275147471545,
,,,,11,0,11,0,5,0,5,0,,,,,,,,647623292,,,,,,,,823.8612911999226,824.3268405999988,825.8274684998905,Parentes   Frutas,Países,Alemanha,,,,,,,,,,,,,,,,,,,,647623292,Marcos Lima,2025-09-06_13h59.48.164,ktt,2022.2.1,59.986275147471545,
,,,,11,0,11,0,6,0,6,0,,,,,,,,647623292,,,,,,,,825.843224399956,826.3271388999419,827.8263403999154,Parentes   Frutas,Metais,Alumínio,,,,,,,,,,,,,,,,,,,,647623292,Marcos Lima,2025-09-06_13h59.48.164,ktt,2022.2.1,59.986275147471545,
,,,,11,0,11,0,7,0,7,0,,,,,,,,647623292,,,,,,,,827.8431011999492,828.3272449999349,,Parentes   Frutas,Metais,Ferro,,,,,,,,,,,,,,,,,,,,647623292,Marcos Lima,2025-09-06_13h59.48.164,ktt,2022.2.1,59.986275147471545,
,,,,11,0,11,0,8,0,8,0,,,,,,,,647623292,,,,,,,,829.8430017998908,830.3269421999576,831.8276583999395,Parentes   Frutas,Cores,Vermelho,,,,,,,,,,,,,,,,,,,,647623292,Marcos Lima,2025-09-06_13h59.48.164,ktt,2022.2.1,59.986275147471545,
,,,,11,0,11,0,9,0,9,0,,,,,,,,647623292,,,,,,,,831.8435778999701,832.3264601998962,833.8265434999485,Parentes   Frutas,Animais,Zebra,,,,,,,,,,,,,,,,,,,,647623292,Marcos Lima,2025-09-06_13h59.48.164,ktt,2022.2.1,59.986275147471545,
,,,,11,0,11,0,10,0,10,0,,,,,,,,647623292,,,,,,,,833.8434128999943,834.3266355999513,,Parentes   Frutas,Cores,Amarelo,,,,,,,,,,,,,,,,,,,,647623292,Marcos Lima,2025-09-06_13h59.48.164,ktt,2022.2.1,59.986275147471545,
,,,,11,0,11,0,11,0,11,0,,,,,,,,647623292,,,,,,,,835.8424981998978,836.3269336998928,837.8266064999625,Parentes   Frutas,Frutas,Banana,,,,,,,,,,,,,,,,,,,,647623292,Marcos Lima,2025-09-06_13h59.48.164,ktt,2022.2.1,59.986275147471545,
,,,,11,0,11,0,12,0,12,0,,,,,,,,647623292,,,,,,,,837.8431348999729,838.3263196999906,839.8259379999945,Parentes   Frutas,Parentes,Filha,,,,,,,,,,,,,,,,,,,,647623292,Marcos Lima,2025-09-06_13h59.48.164,ktt,2022.2.1,59.986275147471545,
,,,,11,0,11,0,13,0,13,0,,,,,,,,647623292,,,,,,,,839.8426654998912,840.3265870999312,841.8268812999595,Parentes   Frutas,Países,Canadá,,,,,,,,,,,,,,,,,,,,647623292,Marcos Lima,2025-09-06_13h59.48.164,ktt,2022.2.1,59.986275147471545,
,,,,11,0,11,0,14,0,14,0,,,,,,,,647623292,,,,,,,,841.844074399909,842.3263790999772,843.8262401999673,Parentes   Frutas,Parentes,Pai,,,,,,,,,,,,,,,,,,,,647623292,Marcos Lima,2025-09-06_13h59.48.164,ktt,2022.2.1,59.986275147471545,
,,,,11,0,11,0,,,,,0,0,0,0,,,,647623292,,,,,,,,,,,Parentes   Frutas,,,843.8587904999731,843.8587904999731,843.8587904999731,843.8587904999731,2,Parentes,Filha,Pai,Tia,Pai,2,1,0,num_1,80.1806646999903,,,,,647623292,Marcos Lima,2025-09-06_13h59.48.164,ktt,2022.2.1,59.986275147471545,
,,,,11,0,11,0,,,,,1,0,1,0,,,,647623292,,,,,,,,,,,Parentes   Frutas,,,924.0714839999564,924.0714839999564,924.0714839999564,924.0714839999564,2,Frutas,Banana,Morango,Maçã,Banana,1,2,0,num_2,0.2516170999733731,,,,,647623292,Marcos Lima,2025-09-06_13h59.48.164,ktt,2022.2.1,59.986275147471545,
,,,,11,0,11,0,,,,,,,,,,,,,,,,,,,,,,,,,,,,,,,,,,,,,,,,,,,,,647623292,Marcos Lima,2025-09-06_13h59.48.164,ktt,2022.2.1,59.986275147471545,
,,,,,,,,,,,,,,,,,,,647623292,,,,,,,,,,,,,,,,,,,,,,,,,,,,,924.3548084999202,924.3548084999202,924.3548084999202,833.9869146000128,,,,,,,
