leftori,rightori,same,corrAns,angle,trials.thisRepN,trials.thisTrialN,trials.thisN,trials.thisIndex,instr_txt_1.started,instr_key_1.started,instr_key_1.keys,instr_key_1.rt,image_L_3.started,image_R_3.started,instr_txt_2.started,instr_key_2.started,mini_pause_2.started,mini_pause_2.stopped,image_L.started,image_R.started,response.started,main_instr.started,trial_count.started,response.keys,response.corr,response.rt,mini_pause.started,mini_pause.stopped,end_txt.started,end_key.started,session,participant,date,expName,psychopyVersion,frameRate,
,,,,,,,,,34.97123219999776,34.97123219999776,m,5.021990100001858,,,,,,,,,,,,,,,,,,,001,helô,2022-12-31_01h44.53.102,MentalRot,2022.2.1,60.1130606463487,
0,135,n,n,135,0,0,0,6,,,,,40.0872692999983,40.0872692999983,40.0872692999983,40.0872692999983,40.78182730000117,42.31028720000177,42.31028720000177,42.31028720000177,42.31028720000177,42.31028720000177,42.31028720000177,n,1,0.8738356999965617,43.21480399999564,43.72480060000089,,,001,helô,2022-12-31_01h44.53.102,MentalRot,2022.2.1,60.1130606463487,
0,225,y,m,225,0,1,1,11,,,,,,,,,,,43.72480060000089,43.72480060000089,43.72480060000089,43.72480060000089,43.72480060000089,m,1,0.764320599999337,44.51493389999814,45.02110199999879,,,001,helô,2022-12-31_01h44.53.102,MentalRot,2022.2.1,60.1130606463487,
0,225,n,n,225,0,2,2,10,,,,,,,,,,,45.02110199999879,45.02110199999879,45.02110199999879,45.02110199999879,45.02110199999879,n,1,0.8182406999985687,45.86501629999839,46.37362900000153,,,001,helô,2022-12-31_01h44.53.102,MentalRot,2022.2.1,60.1130606463487,
0,0,n,n,0,0,3,3,0,,,,,,,,,,,46.37362900000153,46.37362900000153,46.37362900000153,46.37362900000153,46.37362900000153,n,1,0.5946627999946941,46.99806919999537,47.506361200001265,,,001,helô,2022-12-31_01h44.53.102,MentalRot,2022.2.1,60.1130606463487,
0,45,n,n,45,0,4,4,2,,,,,,,,,,,47.506361200001265,47.506361200001265,47.506361200001265,47.506361200001265,47.506361200001265,n,1,0.5418007999978727,48.0646351999967,48.58000429999811,,,001,helô,2022-12-31_01h44.53.102,MentalRot,2022.2.1,60.1130606463487,
0,180,y,m,180,0,5,5,9,,,,,,,,,,,48.58000429999811,48.58000429999811,48.58000429999811,48.58000429999811,48.58000429999811,m,1,0.5808499999984633,49.18139359999623,49.68795669999963,,,001,helô,2022-12-31_01h44.53.102,MentalRot,2022.2.1,60.1130606463487,
0,0,y,m,0,0,6,6,1,,,,,,,,,,,49.68795669999963,49.68795669999963,49.68795669999963,49.68795669999963,49.68795669999963,m,1,0.5835425999975996,50.29808100000082,50.80467369999678,,,001,helô,2022-12-31_01h44.53.102,MentalRot,2022.2.1,60.1130606463487,
0,45,y,m,45,0,7,7,3,,,,,,,,,,,50.80467369999678,50.80467369999678,50.80467369999678,50.80467369999678,50.80467369999678,m,1,0.4596033999987412,51.281230299995514,51.792290599994885,,,001,helô,2022-12-31_01h44.53.102,MentalRot,2022.2.1,60.1130606463487,
0,90,y,m,90,0,8,8,5,,,,,,,,,,,51.792290599994885,51.792290599994885,51.792290599994885,51.792290599994885,51.792290599994885,m,1,0.5435784000001149,52.36446839999553,52.872484599996824,,,001,helô,2022-12-31_01h44.53.102,MentalRot,2022.2.1,60.1130606463487,
0,315,y,m,315,0,9,9,15,,,,,,,,,,,52.872484599996824,52.872484599996824,52.872484599996824,52.872484599996824,52.872484599996824,m,1,0.6234907000034582,53.51449750000029,54.02176219999819,,,001,helô,2022-12-31_01h44.53.102,MentalRot,2022.2.1,60.1130606463487,
0,180,n,n,180,0,10,10,8,,,,,,,,,,,54.02176219999819,54.02176219999819,54.02176219999819,54.02176219999819,54.02176219999819,n,1,0.7379282000038074,54.78106049999769,55.28832929999771,,,001,helô,2022-12-31_01h44.53.102,MentalRot,2022.2.1,60.1130606463487,
0,315,n,n,315,0,11,11,14,,,,,,,,,,,55.28832929999771,55.28832929999771,55.28832929999771,55.28832929999771,55.28832929999771,n,1,0.5277567000011913,55.84765719999996,56.353499299999385,,,001,helô,2022-12-31_01h44.53.102,MentalRot,2022.2.1,60.1130606463487,
0,270,n,n,270,0,12,12,12,,,,,,,,,,,56.353499299999385,56.353499299999385,56.353499299999385,56.353499299999385,56.353499299999385,n,1,0.6709560000017518,57.04771759999858,57.552208499997505,,,001,helô,2022-12-31_01h44.53.102,MentalRot,2022.2.1,60.1130606463487,
0,90,n,n,90,0,13,13,4,,,,,,,,,,,57.552208499997505,57.552208499997505,57.552208499997505,57.552208499997505,57.552208499997505,n,1,0.6320291000010911,58.214257399995404,58.71524130000034,,,001,helô,2022-12-31_01h44.53.102,MentalRot,2022.2.1,60.1130606463487,
0,270,y,m,270,0,14,14,13,,,,,,,,,,,58.71524130000034,58.71524130000034,58.71524130000034,58.71524130000034,58.71524130000034,m,1,0.6127770999955828,59.347509499995795,59.853415999998106,,,001,helô,2022-12-31_01h44.53.102,MentalRot,2022.2.1,60.1130606463487,
0,135,y,m,135,0,15,15,7,,,,,,,,,,,59.853415999998106,59.853415999998106,59.853415999998106,59.853415999998106,59.853415999998106,m,1,0.6275863999981084,60.497448000001896,61.00332889999845,,,001,helô,2022-12-31_01h44.53.102,MentalRot,2022.2.1,60.1130606463487,
0,270,y,m,270,1,0,16,13,,,,,,,,,,,61.00332889999845,61.00332889999845,61.00332889999845,61.00332889999845,61.00332889999845,m,1,0.6524680000002263,61.68105300000025,62.185790800001996,,,001,helô,2022-12-31_01h44.53.102,MentalRot,2022.2.1,60.1130606463487,
0,90,y,m,90,1,1,17,5,,,,,,,,,,,62.185790800001996,62.185790800001996,62.185790800001996,62.185790800001996,62.185790800001996,m,1,0.533806999999797,62.74746109999978,63.252474599998095,,,001,helô,2022-12-31_01h44.53.102,MentalRot,2022.2.1,60.1130606463487,
0,0,y,m,0,1,2,18,1,,,,,,,,,,,63.252474599998095,63.252474599998095,63.252474599998095,63.252474599998095,63.252474599998095,m,1,0.49226930000440916,63.76407459999609,64.2718062999993,,,001,helô,2022-12-31_01h44.53.102,MentalRot,2022.2.1,60.1130606463487,
0,315,y,m,315,1,3,19,15,,,,,,,,,,,64.2718062999993,64.2718062999993,64.2718062999993,64.2718062999993,64.2718062999993,m,1,0.48000510000565555,64.78078839999944,65.28116809999483,,,001,helô,2022-12-31_01h44.53.102,MentalRot,2022.2.1,60.1130606463487,
0,270,n,n,270,1,4,20,12,,,,,,,,,,,65.28116809999483,65.28116809999483,65.28116809999483,65.28116809999483,65.28116809999483,n,1,0.6785235999996075,65.98044659999869,66.48164579999866,,,001,helô,2022-12-31_01h44.53.102,MentalRot,2022.2.1,60.1130606463487,
0,315,n,n,315,1,5,21,14,,,,,,,,,,,66.48164579999866,66.48164579999866,66.48164579999866,66.48164579999866,66.48164579999866,n,1,0.6378715000028023,67.14690699999483,67.6508429999958,,,001,helô,2022-12-31_01h44.53.102,MentalRot,2022.2.1,60.1130606463487,
0,90,n,n,90,1,6,22,4,,,,,,,,,,,67.6508429999958,67.6508429999958,67.6508429999958,67.6508429999958,67.6508429999958,n,1,0.6933463000023039,68.36362099999678,68.87088180000137,,,001,helô,2022-12-31_01h44.53.102,MentalRot,2022.2.1,60.1130606463487,
0,225,n,n,225,1,7,23,10,,,,,,,,,,,68.87088180000137,68.87088180000137,68.87088180000137,68.87088180000137,68.87088180000137,n,1,0.7614663999993354,69.66364120000071,70.16592919999675,,,001,helô,2022-12-31_01h44.53.102,MentalRot,2022.2.1,60.1130606463487,
0,0,n,n,0,1,8,24,0,,,,,,,,,,,70.16592919999675,70.16592919999675,70.16592919999675,70.16592919999675,70.16592919999675,n,1,0.5377135000017006,70.73036299999512,71.2338716000013,,,001,helô,2022-12-31_01h44.53.102,MentalRot,2022.2.1,60.1130606463487,
0,45,y,m,45,1,9,25,3,,,,,,,,,,,71.2338716000013,71.2338716000013,71.2338716000013,71.2338716000013,71.2338716000013,m,1,0.5183108999990509,71.78024829999777,72.28803129999869,,,001,helô,2022-12-31_01h44.53.102,MentalRot,2022.2.1,60.1130606463487,
0,225,y,m,225,1,10,26,11,,,,,,,,,,,72.28803129999869,72.28803129999869,72.28803129999869,72.28803129999869,72.28803129999869,m,1,0.6715966999981902,72.98036809999758,73.4862839999987,,,001,helô,2022-12-31_01h44.53.102,MentalRot,2022.2.1,60.1130606463487,
0,135,y,m,135,1,11,27,7,,,,,,,,,,,73.4862839999987,73.4862839999987,73.4862839999987,73.4862839999987,73.4862839999987,m,1,0.6419440999961807,74.14705490000051,74.65357750000112,,,001,helô,2022-12-31_01h44.53.102,MentalRot,2022.2.1,60.1130606463487,
0,45,n,n,45,1,12,28,2,,,,,,,,,,,74.65357750000112,74.65357750000112,74.65357750000112,74.65357750000112,74.65357750000112,n,1,0.5703445999970427,75.24673579999944,75.75512049999816,,,001,helô,2022-12-31_01h44.53.102,MentalRot,2022.2.1,60.1130606463487,
0,180,n,n,180,1,13,29,8,,,,,,,,,,,75.75512049999816,75.75512049999816,75.75512049999816,75.75512049999816,75.75512049999816,n,1,0.7410252999980003,76.51339000000007,77.0223541000014,,,001,helô,2022-12-31_01h44.53.102,MentalRot,2022.2.1,60.1130606463487,
0,135,n,n,135,1,14,30,6,,,,,,,,,,,77.0223541000014,77.0223541000014,77.0223541000014,77.0223541000014,77.0223541000014,n,1,0.7614500999989104,77.81352619999961,78.3200771999982,,,001,helô,2022-12-31_01h44.53.102,MentalRot,2022.2.1,60.1130606463487,
0,180,y,m,180,1,15,31,9,,,,,,,,,,,78.3200771999982,78.3200771999982,78.3200771999982,78.3200771999982,78.3200771999982,m,1,0.5997226999970735,78.94672159999755,79.45368849999795,,,001,helô,2022-12-31_01h44.53.102,MentalRot,2022.2.1,60.1130606463487,
0,315,y,m,315,2,0,32,15,,,,,,,,,,,79.45368849999795,79.45368849999795,79.45368849999795,79.45368849999795,79.45368849999795,m,1,0.6101453999945079,80.08002879999549,80.58763739999995,,,001,helô,2022-12-31_01h44.53.102,MentalRot,2022.2.1,60.1130606463487,
0,180,n,n,180,2,1,33,8,,,,,,,,,,,80.58763739999995,80.58763739999995,80.58763739999995,80.58763739999995,80.58763739999995,n,1,0.6604787999967812,81.27999089999503,81.78571199999715,,,001,helô,2022-12-31_01h44.53.102,MentalRot,2022.2.1,60.1130606463487,
0,225,n,n,225,2,2,34,10,,,,,,,,,,,81.78571199999715,81.78571199999715,81.78571199999715,81.78571199999715,81.78571199999715,n,1,0.5417448000007425,82.34643159999541,82.8526711999948,,,001,helô,2022-12-31_01h44.53.102,MentalRot,2022.2.1,60.1130606463487,
0,270,y,m,270,2,3,35,13,,,,,,,,,,,82.8526711999948,82.8526711999948,82.8526711999948,82.8526711999948,82.8526711999948,m,1,0.5879277999993064,83.4635674999954,83.9692544999998,,,001,helô,2022-12-31_01h44.53.102,MentalRot,2022.2.1,60.1130606463487,
0,135,n,n,135,2,4,36,6,,,,,,,,,,,83.9692544999998,83.9692544999998,83.9692544999998,83.9692544999998,83.9692544999998,n,1,0.8142210000005434,84.81327520000195,85.32209909999801,,,001,helô,2022-12-31_01h44.53.102,MentalRot,2022.2.1,60.1130606463487,
0,0,y,m,0,2,5,37,1,,,,,,,,,,,85.32209909999801,85.32209909999801,85.32209909999801,85.32209909999801,85.32209909999801,m,1,0.5096781000029296,85.86312670000189,86.36915600000066,,,001,helô,2022-12-31_01h44.53.102,MentalRot,2022.2.1,60.1130606463487,
0,90,y,m,90,2,6,38,5,,,,,,,,,,,86.36915600000066,86.36915600000066,86.36915600000066,86.36915600000066,86.36915600000066,m,1,0.5746498000007705,86.96289740000066,87.46860590000142,,,001,helô,2022-12-31_01h44.53.102,MentalRot,2022.2.1,60.1130606463487,
0,270,n,n,270,2,7,39,12,,,,,,,,,,,87.46860590000142,87.46860590000142,87.46860590000142,87.46860590000142,87.46860590000142,n,1,0.7157870000010007,88.21354160000192,88.71813770000153,,,001,helô,2022-12-31_01h44.53.102,MentalRot,2022.2.1,60.1130606463487,
0,90,n,n,90,2,8,40,4,,,,,,,,,,,88.71813770000153,88.71813770000153,88.71813770000153,88.71813770000153,88.71813770000153,n,1,0.6654526999991504,89.41287719999673,89.92080919999717,,,001,helô,2022-12-31_01h44.53.102,MentalRot,2022.2.1,60.1130606463487,
0,225,y,m,225,2,9,41,11,,,,,,,,,,,89.92080919999717,89.92080919999717,89.92080919999717,89.92080919999717,89.92080919999717,n,0,0.62509190000128,90.56291529999726,91.06942859999981,,,001,helô,2022-12-31_01h44.53.102,MentalRot,2022.2.1,60.1130606463487,
0,180,y,m,180,2,10,42,9,,,,,,,,,,,91.06942859999981,91.06942859999981,91.06942859999981,91.06942859999981,91.06942859999981,m,1,0.6026086999991094,91.6959521999961,92.19679639999958,,,001,helô,2022-12-31_01h44.53.102,MentalRot,2022.2.1,60.1130606463487,
0,315,n,n,315,2,11,43,14,,,,,,,,,,,92.19679639999958,92.19679639999958,92.19679639999958,92.19679639999958,92.19679639999958,n,1,0.5712294999975711,92.7960185999982,93.30046449999645,,,001,helô,2022-12-31_01h44.53.102,MentalRot,2022.2.1,60.1130606463487,
0,135,y,m,135,2,12,44,7,,,,,,,,,,,93.30046449999645,93.30046449999645,93.30046449999645,93.30046449999645,93.30046449999645,m,1,0.5952712999933283,93.9125944999978,94.41947329999675,,,001,helô,2022-12-31_01h44.53.102,MentalRot,2022.2.1,60.1130606463487,
0,0,n,n,0,2,13,45,0,,,,,,,,,,,94.41947329999675,94.41947329999675,94.41947329999675,94.41947329999675,94.41947329999675,n,1,0.5409597999969264,94.97932209999999,95.48533469999529,,,001,helô,2022-12-31_01h44.53.102,MentalRot,2022.2.1,60.1130606463487,
0,45,n,n,45,2,14,46,2,,,,,,,,,,,95.48533469999529,95.48533469999529,95.48533469999529,95.48533469999529,95.48533469999529,n,1,0.5712908999994397,96.0791309999986,96.58599229999527,,,001,helô,2022-12-31_01h44.53.102,MentalRot,2022.2.1,60.1130606463487,
0,45,y,m,45,2,15,47,3,,,,,,,,,,,96.58599229999527,96.58599229999527,96.58599229999527,96.58599229999527,96.58599229999527,m,1,0.5431927999961772,97.14582579999842,97.65445360000012,,,001,helô,2022-12-31_01h44.53.102,MentalRot,2022.2.1,60.1130606463487,
0,135,n,n,135,3,0,48,6,,,,,,,,,,,97.65445360000012,97.65445360000012,97.65445360000012,97.65445360000012,97.65445360000012,n,1,0.6970346000016434,98.37906079999811,98.88593389999733,,,001,helô,2022-12-31_01h44.53.102,MentalRot,2022.2.1,60.1130606463487,
0,180,y,m,180,3,1,49,9,,,,,,,,,,,98.88593389999733,98.88593389999733,98.88593389999733,98.88593389999733,98.88593389999733,m,1,0.6014008000056492,99.51234860000113,100.01705609999772,,,001,helô,2022-12-31_01h44.53.102,MentalRot,2022.2.1,60.1130606463487,
0,225,y,m,225,3,2,50,11,,,,,,,,,,,100.01705609999772,100.01705609999772,100.01705609999772,100.01705609999772,100.01705609999772,m,1,0.7187790999960271,100.76210100000026,101.26280969999789,,,001,helô,2022-12-31_01h44.53.102,MentalRot,2022.2.1,60.1130606463487,
0,315,n,n,315,3,3,51,14,,,,,,,,,,,101.26280969999789,101.26280969999789,101.26280969999789,101.26280969999789,101.26280969999789,n,1,0.6416294000009657,101.92908119999629,102.43161790000158,,,001,helô,2022-12-31_01h44.53.102,MentalRot,2022.2.1,60.1130606463487,
0,45,y,m,45,3,4,52,3,,,,,,,,,,,102.43161790000158,102.43161790000158,102.43161790000158,102.43161790000158,102.43161790000158,m,1,0.4562330999979167,102.91225979999581,103.41828119999991,,,001,helô,2022-12-31_01h44.53.102,MentalRot,2022.2.1,60.1130606463487,
0,225,n,n,225,3,5,53,10,,,,,,,,,,,103.41828119999991,103.41828119999991,103.41828119999991,103.41828119999991,103.41828119999991,n,1,0.646162800003367,104.09564089999913,104.60349960000167,,,001,helô,2022-12-31_01h44.53.102,MentalRot,2022.2.1,60.1130606463487,
0,0,y,m,0,3,6,54,1,,,,,,,,,,,104.60349960000167,104.60349960000167,104.60349960000167,104.60349960000167,104.60349960000167,m,1,0.5015284999972209,105.12880500000028,105.63321349999751,,,001,helô,2022-12-31_01h44.53.102,MentalRot,2022.2.1,60.1130606463487,
0,0,n,n,0,3,7,55,0,,,,,,,,,,,105.63321349999751,105.63321349999751,105.63321349999751,105.63321349999751,105.63321349999751,n,1,0.4863769000003231,106.1452489000003,106.65275939999992,,,001,helô,2022-12-31_01h44.53.102,MentalRot,2022.2.1,60.1130606463487,
0,315,y,m,315,3,8,56,15,,,,,,,,,,,106.65275939999992,106.65275939999992,106.65275939999992,106.65275939999992,106.65275939999992,m,1,0.4351699999970151,107.11205089999567,107.61680360000173,,,001,helô,2022-12-31_01h44.53.102,MentalRot,2022.2.1,60.1130606463487,
0,90,n,n,90,3,9,57,4,,,,,,,,,,,107.61680360000173,107.61680360000173,107.61680360000173,107.61680360000173,107.61680360000173,n,1,0.6955429000008735,108.32864249999693,108.83610210000188,,,001,helô,2022-12-31_01h44.53.102,MentalRot,2022.2.1,60.1130606463487,
0,135,y,m,135,3,10,58,7,,,,,,,,,,,108.83610210000188,108.83610210000188,108.83610210000188,108.83610210000188,108.83610210000188,m,1,0.555954199997359,109.41179179999745,109.91774289999739,,,001,helô,2022-12-31_01h44.53.102,MentalRot,2022.2.1,60.1130606463487,
0,270,n,n,270,3,11,59,12,,,,,,,,,,,109.91774289999739,109.91774289999739,109.91774289999739,109.91774289999739,109.91774289999739,n,1,0.5626087999989977,110.51188869999896,111.0182918999999,,,001,helô,2022-12-31_01h44.53.102,MentalRot,2022.2.1,60.1130606463487,
0,45,n,n,45,3,12,60,2,,,,,,,,,,,111.0182918999999,111.0182918999999,111.0182918999999,111.0182918999999,111.0182918999999,n,1,0.48607730000367155,111.52852219999477,112.03431709999859,,,001,helô,2022-12-31_01h44.53.102,MentalRot,2022.2.1,60.1130606463487,
0,180,n,n,180,3,13,61,8,,,,,,,,,,,112.03431709999859,112.03431709999859,112.03431709999859,112.03431709999859,112.03431709999859,n,1,0.6934939999991911,112.74514239999553,113.25186910000048,,,001,helô,2022-12-31_01h44.53.102,MentalRot,2022.2.1,60.1130606463487,
0,90,y,m,90,3,14,62,5,,,,,,,,,,,113.25186910000048,113.25186910000048,113.25186910000048,113.25186910000048,113.25186910000048,m,1,0.5247780999998213,113.79501909999817,114.30563479999546,,,001,helô,2022-12-31_01h44.53.102,MentalRot,2022.2.1,60.1130606463487,
0,270,y,m,270,3,15,63,13,,,,,,,,,,,114.30563479999546,114.30563479999546,114.30563479999546,114.30563479999546,114.30563479999546,n,0,0.5585311999966507,114.89498689999891,115.40202480000153,,,001,helô,2022-12-31_01h44.53.102,MentalRot,2022.2.1,60.1130606463487,
0,90,n,n,90,4,0,64,4,,,,,,,,,,,115.40202480000153,115.40202480000153,115.40202480000153,115.40202480000153,115.40202480000153,n,1,0.7100396000023466,116.12825889999658,116.63580749999528,,,001,helô,2022-12-31_01h44.53.102,MentalRot,2022.2.1,60.1130606463487,
0,180,y,m,180,4,1,65,9,,,,,,,,,,,116.63580749999528,116.63580749999528,116.63580749999528,116.63580749999528,116.63580749999528,m,1,0.6681103999944753,117.32828329999757,117.83688499999698,,,001,helô,2022-12-31_01h44.53.102,MentalRot,2022.2.1,60.1130606463487,
0,135,y,m,135,4,2,66,7,,,,,,,,,,,117.83688499999698,117.83688499999698,117.83688499999698,117.83688499999698,117.83688499999698,m,1,0.6035712000011699,118.4615816000005,118.96839419999742,,,001,helô,2022-12-31_01h44.53.102,MentalRot,2022.2.1,60.1130606463487,
0,315,n,n,315,4,3,67,14,,,,,,,,,,,118.96839419999742,118.96839419999742,118.96839419999742,118.96839419999742,118.96839419999742,n,1,0.6311946999994689,119.62824109999929,120.13255229999777,,,001,helô,2022-12-31_01h44.53.102,MentalRot,2022.2.1,60.1130606463487,
0,0,n,n,0,4,4,68,0,,,,,,,,,,,120.13255229999777,120.13255229999777,120.13255229999777,120.13255229999777,120.13255229999777,n,1,0.4996184000046924,120.66121729999577,121.16831599999568,,,001,helô,2022-12-31_01h44.53.102,MentalRot,2022.2.1,60.1130606463487,
0,90,y,m,90,4,5,69,5,,,,,,,,,,,121.16831599999568,121.16831599999568,121.16831599999568,121.16831599999568,121.16831599999568,m,1,0.5030388999948627,121.6945831999983,122.20117059999757,,,001,helô,2022-12-31_01h44.53.102,MentalRot,2022.2.1,60.1130606463487,
0,0,y,m,0,4,6,70,1,,,,,,,,,,,122.20117059999757,122.20117059999757,122.20117059999757,122.20117059999757,122.20117059999757,m,1,0.5358233999941149,122.76157819999935,123.26919199999975,,,001,helô,2022-12-31_01h44.53.102,MentalRot,2022.2.1,60.1130606463487,
0,180,n,n,180,4,7,71,8,,,,,,,,,,,123.26919199999975,123.26919199999975,123.26919199999975,123.26919199999975,123.26919199999975,n,1,0.5944110999989789,123.89485969999805,124.4011795999977,,,001,helô,2022-12-31_01h44.53.102,MentalRot,2022.2.1,60.1130606463487,
0,45,n,n,45,4,8,72,2,,,,,,,,,,,124.4011795999977,124.4011795999977,124.4011795999977,124.4011795999977,124.4011795999977,n,1,0.5266450999988592,124.94453619999695,125.45098119999602,,,001,helô,2022-12-31_01h44.53.102,MentalRot,2022.2.1,60.1130606463487,
0,135,n,n,135,4,9,73,6,,,,,,,,,,,125.45098119999602,125.45098119999602,125.45098119999602,125.45098119999602,125.45098119999602,n,1,0.5251195000018924,125.99452759999986,126.50019790000079,,,001,helô,2022-12-31_01h44.53.102,MentalRot,2022.2.1,60.1130606463487,
0,45,y,m,45,4,10,74,3,,,,,,,,,,,126.50019790000079,126.50019790000079,126.50019790000079,126.50019790000079,126.50019790000079,m,1,0.5000331999981427,127.02782730000035,127.5336313000007,,,001,helô,2022-12-31_01h44.53.102,MentalRot,2022.2.1,60.1130606463487,
0,225,n,n,225,4,11,75,10,,,,,,,,,,,127.5336313000007,127.5336313000007,127.5336313000007,127.5336313000007,127.5336313000007,n,1,0.8020432999983313,128.36114950000047,128.86765770000056,,,001,helô,2022-12-31_01h44.53.102,MentalRot,2022.2.1,60.1130606463487,
0,315,y,m,315,4,12,76,15,,,,,,,,,,,128.86765770000056,128.86765770000056,128.86765770000056,128.86765770000056,128.86765770000056,m,1,0.5157566999987466,129.41125479999755,129.91846429999714,,,001,helô,2022-12-31_01h44.53.102,MentalRot,2022.2.1,60.1130606463487,
0,270,n,n,270,4,13,77,12,,,,,,,,,,,129.91846429999714,129.91846429999714,129.91846429999714,129.91846429999714,129.91846429999714,n,1,0.9932295999969938,130.92754589999822,131.4318276999984,,,001,helô,2022-12-31_01h44.53.102,MentalRot,2022.2.1,60.1130606463487,
0,225,y,m,225,4,14,78,11,,,,,,,,,,,131.4318276999984,131.4318276999984,131.4318276999984,131.4318276999984,131.4318276999984,m,1,0.6086565999939921,132.06133709999995,132.56853739999497,,,001,helô,2022-12-31_01h44.53.102,MentalRot,2022.2.1,60.1130606463487,
0,270,y,m,270,4,15,79,13,,,,,,,,,,,132.56853739999497,132.56853739999497,132.56853739999497,132.56853739999497,132.56853739999497,m,1,0.6949592000019038,133.29417129999638,133.7971766999981,,,001,helô,2022-12-31_01h44.53.102,MentalRot,2022.2.1,60.1130606463487,
0,270,y,m,270,5,0,80,13,,,,,,,,,,,133.7971766999981,133.7971766999981,133.7971766999981,133.7971766999981,133.7971766999981,m,1,0.5782487999967998,134.39391339999565,134.89658619999682,,,001,helô,2022-12-31_01h44.53.102,MentalRot,2022.2.1,60.1130606463487,
0,180,y,m,180,5,1,81,9,,,,,,,,,,,134.89658619999682,134.89658619999682,134.89658619999682,134.89658619999682,134.89658619999682,m,1,1.0874177000005147,136.0109375999964,136.52065289999882,,,001,helô,2022-12-31_01h44.53.102,MentalRot,2022.2.1,60.1130606463487,
0,90,n,n,90,5,2,82,4,,,,,,,,,,,136.52065289999882,136.52065289999882,136.52065289999882,136.52065289999882,136.52065289999882,n,1,0.5675244000012754,137.11102389999724,137.6166563000006,,,001,helô,2022-12-31_01h44.53.102,MentalRot,2022.2.1,60.1130606463487,
0,135,y,m,135,5,3,83,7,,,,,,,,,,,137.6166563000006,137.6166563000006,137.6166563000006,137.6166563000006,137.6166563000006,m,1,0.5599500999960583,138.1940403999979,138.69937270000082,,,001,helô,2022-12-31_01h44.53.102,MentalRot,2022.2.1,60.1130606463487,
0,90,y,m,90,5,4,84,5,,,,,,,,,,,138.69937270000082,138.69937270000082,138.69937270000082,138.69937270000082,138.69937270000082,m,1,0.5244128999984241,139.2438101000007,139.75557750000007,,,001,helô,2022-12-31_01h44.53.102,MentalRot,2022.2.1,60.1130606463487,
0,135,n,n,135,5,5,85,6,,,,,,,,,,,139.75557750000007,139.75557750000007,139.75557750000007,139.75557750000007,139.75557750000007,n,1,0.611949199999799,140.3937356999959,140.90247660000023,,,001,helô,2022-12-31_01h44.53.102,MentalRot,2022.2.1,60.1130606463487,
0,225,n,n,225,5,6,86,10,,,,,,,,,,,140.90247660000023,140.90247660000023,140.90247660000023,140.90247660000023,140.90247660000023,n,1,0.6250306999936583,141.54365649999818,142.0502392999988,,,001,helô,2022-12-31_01h44.53.102,MentalRot,2022.2.1,60.1130606463487,
0,0,y,m,0,5,7,87,1,,,,,,,,,,,142.0502392999988,142.0502392999988,142.0502392999988,142.0502392999988,142.0502392999988,m,1,0.5251253999958863,142.5940152999974,143.1010877000008,,,001,helô,2022-12-31_01h44.53.102,MentalRot,2022.2.1,60.1130606463487,
0,270,n,n,270,5,8,88,12,,,,,,,,,,,143.1010877000008,143.1010877000008,143.1010877000008,143.1010877000008,143.1010877000008,m,0,0.4504635999983293,143.57705590000114,144.0798186999964,,,001,helô,2022-12-31_01h44.53.102,MentalRot,2022.2.1,60.1130606463487,
0,315,y,m,315,5,9,89,15,,,,,,,,,,,144.0798186999964,144.0798186999964,144.0798186999964,144.0798186999964,144.0798186999964,m,1,0.503977100001066,144.61015639999823,145.1179936999979,,,001,helô,2022-12-31_01h44.53.102,MentalRot,2022.2.1,60.1130606463487,
0,45,n,n,45,5,10,90,2,,,,,,,,,,,145.1179936999979,145.1179936999979,145.1179936999979,145.1179936999979,145.1179936999979,n,1,0.5696935000014491,145.71008359999541,146.21869770000194,,,001,helô,2022-12-31_01h44.53.102,MentalRot,2022.2.1,60.1130606463487,
0,225,y,m,225,5,11,91,11,,,,,,,,,,,146.21869770000194,146.21869770000194,146.21869770000194,146.21869770000194,146.21869770000194,m,1,0.5974158999961219,146.8439694999979,147.34410599999683,,,001,helô,2022-12-31_01h44.53.102,MentalRot,2022.2.1,60.1130606463487,
0,0,n,n,0,5,12,92,0,,,,,,,,,,,147.34410599999683,147.34410599999683,147.34410599999683,147.34410599999683,147.34410599999683,n,1,0.5438901999950758,147.91017270000157,148.414509000002,,,001,helô,2022-12-31_01h44.53.102,MentalRot,2022.2.1,60.1130606463487,
0,180,n,n,180,5,13,93,8,,,,,,,,,,,148.414509000002,148.414509000002,148.414509000002,148.414509000002,148.414509000002,n,1,0.6414906999998493,149.0769250000012,149.58332439999504,,,001,helô,2022-12-31_01h44.53.102,MentalRot,2022.2.1,60.1130606463487,
0,315,n,n,315,5,14,94,14,,,,,,,,,,,149.58332439999504,149.58332439999504,149.58332439999504,149.58332439999504,149.58332439999504,n,1,0.6089223000017228,150.21010849999584,150.71554440000182,,,001,helô,2022-12-31_01h44.53.102,MentalRot,2022.2.1,60.1130606463487,
0,45,y,m,45,5,15,95,3,,,,,,,,,,,150.71554440000182,150.71554440000182,150.71554440000182,150.71554440000182,150.71554440000182,m,1,0.5643242000005557,151.3098073000001,151.8173295000015,,,001,helô,2022-12-31_01h44.53.102,MentalRot,2022.2.1,60.1130606463487,
0,90,n,n,90,6,0,96,4,,,,,,,,,,,151.8173295000015,151.8173295000015,151.8173295000015,151.8173295000015,151.8173295000015,n,1,0.6788875000056578,152.5266741000014,153.0319512999995,,,001,helô,2022-12-31_01h44.53.102,MentalRot,2022.2.1,60.1130606463487,
0,180,y,m,180,6,1,97,9,,,,,,,,,,,153.0319512999995,153.0319512999995,153.0319512999995,153.0319512999995,153.0319512999995,m,1,0.5755557000011322,153.62677089999488,154.13314990000072,,,001,helô,2022-12-31_01h44.53.102,MentalRot,2022.2.1,60.1130606463487,
0,135,y,m,135,6,2,98,7,,,,,,,,,,,154.13314990000072,154.13314990000072,154.13314990000072,154.13314990000072,154.13314990000072,m,1,0.6185948999991524,154.7763935999974,155.28329020000092,,,001,helô,2022-12-31_01h44.53.102,MentalRot,2022.2.1,60.1130606463487,
0,180,n,n,180,6,3,99,8,,,,,,,,,,,155.28329020000092,155.28329020000092,155.28329020000092,155.28329020000092,155.28329020000092,n,1,0.7729399999952875,156.0763294999997,156.58347720000165,,,001,helô,2022-12-31_01h44.53.102,MentalRot,2022.2.1,60.1130606463487,
0,225,y,m,225,6,4,100,11,,,,,,,,,,,156.58347720000165,156.58347720000165,156.58347720000165,156.58347720000165,156.58347720000165,n,0,0.6085990999999922,157.2097874999963,157.71610919999512,,,001,helô,2022-12-31_01h44.53.102,MentalRot,2022.2.1,60.1130606463487,
0,45,n,n,45,6,5,101,2,,,,,,,,,,,157.71610919999512,157.71610919999512,157.71610919999512,157.71610919999512,157.71610919999512,n,1,0.5481584999943152,158.29315089999727,158.80012449999776,,,001,helô,2022-12-31_01h44.53.102,MentalRot,2022.2.1,60.1130606463487,
0,315,y,m,315,6,6,102,15,,,,,,,,,,,158.80012449999776,158.80012449999776,158.80012449999776,158.80012449999776,158.80012449999776,m,1,0.5515718999959063,159.37625449999905,159.8813955000005,,,001,helô,2022-12-31_01h44.53.102,MentalRot,2022.2.1,60.1130606463487,
0,0,y,m,0,6,7,103,1,,,,,,,,,,,159.8813955000005,159.8813955000005,159.8813955000005,159.8813955000005,159.8813955000005,m,1,0.5660838999974658,160.47624109999742,160.98319139999512,,,001,helô,2022-12-31_01h44.53.102,MentalRot,2022.2.1,60.1130606463487,
0,270,n,n,270,6,8,104,12,,,,,,,,,,,160.98319139999512,160.98319139999512,160.98319139999512,160.98319139999512,160.98319139999512,n,1,0.6162747999987914,161.62638029999653,162.1338820000019,,,001,helô,2022-12-31_01h44.53.102,MentalRot,2022.2.1,60.1130606463487,
0,225,n,n,225,6,9,105,10,,,,,,,,,,,162.1338820000019,162.1338820000019,162.1338820000019,162.1338820000019,162.1338820000019,n,1,0.5298923000009381,162.69314499999746,163.20012299999507,,,001,helô,2022-12-31_01h44.53.102,MentalRot,2022.2.1,60.1130606463487,
0,135,n,n,135,6,10,106,6,,,,,,,,,,,163.20012299999507,163.20012299999507,163.20012299999507,163.20012299999507,163.20012299999507,n,1,0.5839213999934145,163.8092628999948,164.31708960000105,,,001,helô,2022-12-31_01h44.53.102,MentalRot,2022.2.1,60.1130606463487,
0,45,y,m,45,6,11,107,3,,,,,,,,,,,164.31708960000105,164.31708960000105,164.31708960000105,164.31708960000105,164.31708960000105,m,1,0.5944011000028695,164.94296380000014,165.44297689999803,,,001,helô,2022-12-31_01h44.53.102,MentalRot,2022.2.1,60.1130606463487,
0,270,y,m,270,6,12,108,13,,,,,,,,,,,165.44297689999803,165.44297689999803,165.44297689999803,165.44297689999803,165.44297689999803,n,0,0.5010225000005448,165.97612259999732,166.47814690000087,,,001,helô,2022-12-31_01h44.53.102,MentalRot,2022.2.1,60.1130606463487,
0,90,y,m,90,6,13,109,5,,,,,,,,,,,166.47814690000087,166.47814690000087,166.47814690000087,166.47814690000087,166.47814690000087,m,1,0.6013289999973495,167.10917479999625,167.60987749999913,,,001,helô,2022-12-31_01h44.53.102,MentalRot,2022.2.1,60.1130606463487,
0,315,n,n,315,6,14,110,14,,,,,,,,,,,167.60987749999913,167.60987749999913,167.60987749999913,167.60987749999913,167.60987749999913,n,1,0.582012200000463,168.20933089999744,168.71259299999656,,,001,helô,2022-12-31_01h44.53.102,MentalRot,2022.2.1,60.1130606463487,
0,0,n,n,0,6,15,111,0,,,,,,,,,,,168.71259299999656,168.71259299999656,168.71259299999656,168.71259299999656,168.71259299999656,n,1,0.5039063000003807,169.2426770999955,169.7501854000002,,,001,helô,2022-12-31_01h44.53.102,MentalRot,2022.2.1,60.1130606463487,
0,225,n,n,225,7,0,112,10,,,,,,,,,,,169.7501854000002,169.7501854000002,169.7501854000002,169.7501854000002,169.7501854000002,n,1,0.5616288000019267,170.34252130000095,170.84794249999686,,,001,helô,2022-12-31_01h44.53.102,MentalRot,2022.2.1,60.1130606463487,
0,90,n,n,90,7,1,113,4,,,,,,,,,,,170.84794249999686,170.84794249999686,170.84794249999686,170.84794249999686,170.84794249999686,n,1,0.5766264999983832,171.44267379999656,171.9500560000015,,,001,helô,2022-12-31_01h44.53.102,MentalRot,2022.2.1,60.1130606463487,
0,180,y,m,180,7,2,114,9,,,,,,,,,,,171.9500560000015,171.9500560000015,171.9500560000015,171.9500560000015,171.9500560000015,m,1,0.6584790999986581,172.62566569999763,173.13230479999766,,,001,helô,2022-12-31_01h44.53.102,MentalRot,2022.2.1,60.1130606463487,
0,90,y,m,90,7,3,115,5,,,,,,,,,,,173.13230479999766,173.13230479999766,173.13230479999766,173.13230479999766,173.13230479999766,m,1,0.6758296999978484,173.82580909999524,174.33279069999844,,,001,helô,2022-12-31_01h44.53.102,MentalRot,2022.2.1,60.1130606463487,
0,225,y,m,225,7,4,116,11,,,,,,,,,,,174.33279069999844,174.33279069999844,174.33279069999844,174.33279069999844,174.33279069999844,n,0,0.6031893999970634,174.9595590999961,175.4648451999965,,,001,helô,2022-12-31_01h44.53.102,MentalRot,2022.2.1,60.1130606463487,
0,45,y,m,45,7,5,117,3,,,,,,,,,,,175.4648451999965,175.4648451999965,175.4648451999965,175.4648451999965,175.4648451999965,m,1,0.5508851999984472,176.04248409999855,176.55098290000024,,,001,helô,2022-12-31_01h44.53.102,MentalRot,2022.2.1,60.1130606463487,
0,135,y,m,135,7,6,118,7,,,,,,,,,,,176.55098290000024,176.55098290000024,176.55098290000024,176.55098290000024,176.55098290000024,m,1,0.6175359999979264,177.19214899999497,177.69865879999998,,,001,helô,2022-12-31_01h44.53.102,MentalRot,2022.2.1,60.1130606463487,
0,270,n,n,270,7,7,119,12,,,,,,,,,,,177.69865879999998,177.69865879999998,177.69865879999998,177.69865879999998,177.69865879999998,n,1,0.8857936999993399,178.6085951999994,179.1163643999971,,,001,helô,2022-12-31_01h44.53.102,MentalRot,2022.2.1,60.1130606463487,
0,0,y,m,0,7,8,120,1,,,,,,,,,,,179.1163643999971,179.1163643999971,179.1163643999971,179.1163643999971,179.1163643999971,n,0,0.5723781999986386,179.70876799999678,180.21444489999703,,,001,helô,2022-12-31_01h44.53.102,MentalRot,2022.2.1,60.1130606463487,
0,315,y,m,315,7,9,121,15,,,,,,,,,,,180.21444489999703,180.21444489999703,180.21444489999703,180.21444489999703,180.21444489999703,m,1,0.5775601999994251,180.8085779999965,181.31610199999704,,,001,helô,2022-12-31_01h44.53.102,MentalRot,2022.2.1,60.1130606463487,
0,45,n,n,45,7,10,122,2,,,,,,,,,,,181.31610199999704,181.31610199999704,181.31610199999704,181.31610199999704,181.31610199999704,n,1,0.6121674999958486,181.9585231999954,182.46749969999655,,,001,helô,2022-12-31_01h44.53.102,MentalRot,2022.2.1,60.1130606463487,
0,0,n,n,0,7,11,123,0,,,,,,,,,,,182.46749969999655,182.46749969999655,182.46749969999655,182.46749969999655,182.46749969999655,n,1,0.557893299999705,183.04192719999992,183.54232889999548,,,001,helô,2022-12-31_01h44.53.102,MentalRot,2022.2.1,60.1130606463487,
0,180,n,n,180,7,12,124,8,,,,,,,,,,,183.54232889999548,183.54232889999548,183.54232889999548,183.54232889999548,183.54232889999548,n,1,0.761775499995565,184.32508479999524,184.83010999999533,,,001,helô,2022-12-31_01h44.53.102,MentalRot,2022.2.1,60.1130606463487,
0,135,n,n,135,7,13,125,6,,,,,,,,,,,184.83010999999533,184.83010999999533,184.83010999999533,184.83010999999533,184.83010999999533,n,1,0.7455098999998881,185.59167769999476,186.09820829999808,,,001,helô,2022-12-31_01h44.53.102,MentalRot,2022.2.1,60.1130606463487,
0,315,n,n,315,7,14,126,14,,,,,,,,,,,186.09820829999808,186.09820829999808,186.09820829999808,186.09820829999808,186.09820829999808,n,1,0.6216911000010441,186.7416196999984,187.24869889999536,,,001,helô,2022-12-31_01h44.53.102,MentalRot,2022.2.1,60.1130606463487,
0,270,y,m,270,7,15,127,13,,,,,,,,,,,187.24869889999536,187.24869889999536,187.24869889999536,187.24869889999536,187.24869889999536,m,1,0.7755392000035499,188.04153090000182,188.5528340000019,,,001,helô,2022-12-31_01h44.53.102,MentalRot,2022.2.1,60.1130606463487,
0,270,n,n,270,8,0,128,12,,,,,,,,,,,188.5528340000019,188.5528340000019,188.5528340000019,188.5528340000019,188.5528340000019,n,1,0.6305250000004889,189.20828549999715,189.71490629999607,,,001,helô,2022-12-31_01h44.53.102,MentalRot,2022.2.1,60.1130606463487,
0,0,y,m,0,8,1,129,1,,,,,,,,,,,189.71490629999607,189.71490629999607,189.71490629999607,189.71490629999607,189.71490629999607,m,1,0.6061632999990252,190.34137109999574,190.851015799999,,,001,helô,2022-12-31_01h44.53.102,MentalRot,2022.2.1,60.1130606463487,
0,45,y,m,45,8,2,130,3,,,,,,,,,,,190.851015799999,190.851015799999,190.851015799999,190.851015799999,190.851015799999,m,1,0.5169533000007505,191.39158529999986,191.89775199999713,,,001,helô,2022-12-31_01h44.53.102,MentalRot,2022.2.1,60.1130606463487,
0,45,n,n,45,8,3,131,2,,,,,,,,,,,191.89775199999713,191.89775199999713,191.89775199999713,191.89775199999713,191.89775199999713,n,1,0.5415890000003856,192.45823779999773,192.96444630000042,,,001,helô,2022-12-31_01h44.53.102,MentalRot,2022.2.1,60.1130606463487,
0,0,n,n,0,8,4,132,0,,,,,,,,,,,192.96444630000042,192.96444630000042,192.96444630000042,192.96444630000042,192.96444630000042,n,1,0.515330799993535,193.50803330000053,194.01484009999695,,,001,helô,2022-12-31_01h44.53.102,MentalRot,2022.2.1,60.1130606463487,
0,135,y,m,135,8,5,133,7,,,,,,,,,,,194.01484009999695,194.01484009999695,194.01484009999695,194.01484009999695,194.01484009999695,m,1,0.5126261999976123,194.55821089999517,195.0645074999993,,,001,helô,2022-12-31_01h44.53.102,MentalRot,2022.2.1,60.1130606463487,
0,315,n,n,315,8,6,134,14,,,,,,,,,,,195.0645074999993,195.0645074999993,195.0645074999993,195.0645074999993,195.0645074999993,n,1,0.558938100002706,195.64116639999702,196.14580569999816,,,001,helô,2022-12-31_01h44.53.102,MentalRot,2022.2.1,60.1130606463487,
0,225,y,m,225,8,7,135,11,,,,,,,,,,,196.14580569999816,196.14580569999816,196.14580569999816,196.14580569999816,196.14580569999816,m,1,0.6857317000030889,196.85791210000025,197.3638318000012,,,001,helô,2022-12-31_01h44.53.102,MentalRot,2022.2.1,60.1130606463487,
0,135,n,n,135,8,8,136,6,,,,,,,,,,,197.3638318000012,197.3638318000012,197.3638318000012,197.3638318000012,197.3638318000012,n,1,0.6916431999998167,198.07481169999664,198.58038749999832,,,001,helô,2022-12-31_01h44.53.102,MentalRot,2022.2.1,60.1130606463487,
0,90,n,n,90,8,9,137,4,,,,,,,,,,,198.58038749999832,198.58038749999832,198.58038749999832,198.58038749999832,198.58038749999832,n,1,0.6351566000012099,199.24135759999626,199.74359710000135,,,001,helô,2022-12-31_01h44.53.102,MentalRot,2022.2.1,60.1130606463487,
0,315,y,m,315,8,10,138,15,,,,,,,,,,,199.74359710000135,199.74359710000135,199.74359710000135,199.74359710000135,199.74359710000135,m,1,0.6722723999992013,200.4412033999979,200.94532549999713,,,001,helô,2022-12-31_01h44.53.102,MentalRot,2022.2.1,60.1130606463487,
0,270,y,m,270,8,11,139,13,,,,,,,,,,,200.94532549999713,200.94532549999713,200.94532549999713,200.94532549999713,200.94532549999713,m,1,0.6142171999963466,201.59095179999713,202.09367850000126,,,001,helô,2022-12-31_01h44.53.102,MentalRot,2022.2.1,60.1130606463487,
0,180,y,m,180,8,12,140,9,,,,,,,,,,,202.09367850000126,202.09367850000126,202.09367850000126,202.09367850000126,202.09367850000126,m,1,0.5867215000034776,202.70742040000187,203.21350079999684,,,001,helô,2022-12-31_01h44.53.102,MentalRot,2022.2.1,60.1130606463487,
0,180,n,n,180,8,13,141,8,,,,,,,,,,,203.21350079999684,203.21350079999684,203.21350079999684,203.21350079999684,203.21350079999684,n,1,0.9796921999950428,204.22448939999595,204.73166710000078,,,001,helô,2022-12-31_01h44.53.102,MentalRot,2022.2.1,60.1130606463487,
0,90,y,m,90,8,14,142,5,,,,,,,,,,,204.73166710000078,204.73166710000078,204.73166710000078,204.73166710000078,204.73166710000078,m,1,0.5006399999983842,205.25760219999938,205.76226419999875,,,001,helô,2022-12-31_01h44.53.102,MentalRot,2022.2.1,60.1130606463487,
0,225,n,n,225,8,15,143,10,,,,,,,,,,,205.76226419999875,205.76226419999875,205.76226419999875,205.76226419999875,205.76226419999875,n,1,0.5976695999997901,206.39089099999546,206.89614979999897,,,001,helô,2022-12-31_01h44.53.102,MentalRot,2022.2.1,60.1130606463487,
0,225,n,n,225,9,0,144,10,,,,,,,,,,,206.89614979999897,206.89614979999897,206.89614979999897,206.89614979999897,206.89614979999897,n,1,0.60843290000048,207.52409120000084,208.03065209999477,,,001,helô,2022-12-31_01h44.53.102,MentalRot,2022.2.1,60.1130606463487,
0,315,n,n,315,9,1,145,14,,,,,,,,,,,208.03065209999477,208.03065209999477,208.03065209999477,208.03065209999477,208.03065209999477,n,1,0.553791899998032,208.60731790000136,209.11568109999644,,,001,helô,2022-12-31_01h44.53.102,MentalRot,2022.2.1,60.1130606463487,
0,315,y,m,315,9,2,146,15,,,,,,,,,,,209.11568109999644,209.11568109999644,209.11568109999644,209.11568109999644,209.11568109999644,m,1,0.4758847999983118,209.60732499999722,210.11619499999506,,,001,helô,2022-12-31_01h44.53.102,MentalRot,2022.2.1,60.1130606463487,
0,90,n,n,90,9,3,147,4,,,,,,,,,,,210.11619499999506,210.11619499999506,210.11619499999506,210.11619499999506,210.11619499999506,n,1,0.6676746000011917,210.80731240000023,211.31489760000113,,,001,helô,2022-12-31_01h44.53.102,MentalRot,2022.2.1,60.1130606463487,
0,135,y,m,135,9,4,148,7,,,,,,,,,,,211.31489760000113,211.31489760000113,211.31489760000113,211.31489760000113,211.31489760000113,m,1,0.5254012999939732,211.85721329999797,212.36278849999508,,,001,helô,2022-12-31_01h44.53.102,MentalRot,2022.2.1,60.1130606463487,
0,180,y,m,180,9,5,149,9,,,,,,,,,,,212.36278849999508,212.36278849999508,212.36278849999508,212.36278849999508,212.36278849999508,m,1,0.5814373999965028,212.97369659999822,213.48153779999848,,,001,helô,2022-12-31_01h44.53.102,MentalRot,2022.2.1,60.1130606463487,
0,45,n,n,45,9,6,150,2,,,,,,,,,,,213.48153779999848,213.48153779999848,213.48153779999848,213.48153779999848,213.48153779999848,n,1,0.5981353999959538,214.10727279999992,214.6155224999966,,,001,helô,2022-12-31_01h44.53.102,MentalRot,2022.2.1,60.1130606463487,
0,90,y,m,90,9,7,151,5,,,,,,,,,,,214.6155224999966,214.6155224999966,214.6155224999966,214.6155224999966,214.6155224999966,m,1,0.5762042999995174,215.22361329999694,215.7310365000012,,,001,helô,2022-12-31_01h44.53.102,MentalRot,2022.2.1,60.1130606463487,
0,270,n,n,270,9,8,152,12,,,,,,,,,,,215.7310365000012,215.7310365000012,215.7310365000012,215.7310365000012,215.7310365000012,n,1,0.5806406999981846,216.340400699999,216.8471497999999,,,001,helô,2022-12-31_01h44.53.102,MentalRot,2022.2.1,60.1130606463487,
0,0,y,m,0,9,9,153,1,,,,,,,,,,,216.8471497999999,216.8471497999999,216.8471497999999,216.8471497999999,216.8471497999999,m,1,0.5454030999972019,217.4236103000003,217.92953719999787,,,001,helô,2022-12-31_01h44.53.102,MentalRot,2022.2.1,60.1130606463487,
0,225,y,m,225,9,10,154,11,,,,,,,,,,,217.92953719999787,217.92953719999787,217.92953719999787,217.92953719999787,217.92953719999787,m,1,0.5821552999987034,218.54011119999632,219.0409559999971,,,001,helô,2022-12-31_01h44.53.102,MentalRot,2022.2.1,60.1130606463487,
0,270,y,m,270,9,11,155,13,,,,,,,,,,,219.0409559999971,219.0409559999971,219.0409559999971,219.0409559999971,219.0409559999971,m,1,0.6307387999986531,219.69049429999723,220.19845350000105,,,001,helô,2022-12-31_01h44.53.102,MentalRot,2022.2.1,60.1130606463487,
0,180,n,n,180,9,12,156,8,,,,,,,,,,,220.19845350000105,220.19845350000105,220.19845350000105,220.19845350000105,220.19845350000105,n,1,0.6102895000003628,220.84014039999602,221.34605509999528,,,001,helô,2022-12-31_01h44.53.102,MentalRot,2022.2.1,60.1130606463487,
0,0,n,n,0,9,13,157,0,,,,,,,,,,,221.34605509999528,221.34605509999528,221.34605509999528,221.34605509999528,221.34605509999528,n,1,0.5422683999931905,221.9070955999996,222.4142997999952,,,001,helô,2022-12-31_01h44.53.102,MentalRot,2022.2.1,60.1130606463487,
0,135,n,n,135,9,14,158,6,,,,,,,,,,,222.4142997999952,222.4142997999952,222.4142997999952,222.4142997999952,222.4142997999952,n,1,0.6016888000012841,223.03984299999865,223.5445808000004,,,001,helô,2022-12-31_01h44.53.102,MentalRot,2022.2.1,60.1130606463487,
0,45,y,m,45,9,15,159,3,,,,,,,,,,,223.5445808000004,223.5445808000004,223.5445808000004,223.5445808000004,223.5445808000004,m,1,0.47215500000311295,224.04019049999624,224.539912799999,,,001,helô,2022-12-31_01h44.53.102,MentalRot,2022.2.1,60.1130606463487,
,,,,,,,,,,,,,,,,,,,,,,,,,,,,,224.539912799999,224.539912799999,,,,,,,
