leftori,rightori,same,corrAns,angle,trials.thisRepN,trials.thisTrialN,trials.thisN,trials.thisIndex,instr_txt_1.started,instr_key_1.started,instr_key_1.keys,instr_key_1.rt,image_L_3.started,image_R_3.started,instr_txt_2.started,instr_key_2.started,mini_pause_2.started,mini_pause_2.stopped,image_L.started,image_R.started,response.started,main_instr.started,trial_count.started,response.keys,response.corr,response.rt,mini_pause.started,mini_pause.stopped,end_txt.started,end_key.started,session,participant,date,expName,psychopyVersion,frameRate,
,,,,,,,,,16.68279110000003,16.68279110000003,m,0.3790173999950639,,,,,,,,,,,,,,,,,,,001,jack,2022-12-31_01h54.15.243,MentalRot,2022.2.1,60.05064671484583,
0,180,n,n,180,0,0,0,8,,,,,17.143990700002178,17.143990700002178,17.143990700002178,17.143990700002178,17.42856220000249,18.936064699999406,18.936064699999406,18.936064699999406,18.936064699999406,18.936064699999406,18.936064699999406,n,1,0.8610416999945301,19.82853270000487,20.32896079999773,,,001,jack,2022-12-31_01h54.15.243,MentalRot,2022.2.1,60.05064671484583,
0,180,y,m,180,0,1,1,9,,,,,,,,,,,20.32896079999773,20.32896079999773,20.32896079999773,20.32896079999773,20.32896079999773,m,1,0.7725222000008216,21.12822920000326,21.629660200000217,,,001,jack,2022-12-31_01h54.15.243,MentalRot,2022.2.1,60.05064671484583,
0,135,n,n,135,0,2,2,6,,,,,,,,,,,21.629660200000217,21.629660200000217,21.629660200000217,21.629660200000217,21.629660200000217,n,1,0.6325338999959058,22.294887399999425,22.795583200000692,,,001,jack,2022-12-31_01h54.15.243,MentalRot,2022.2.1,60.05064671484583,
0,315,y,m,315,0,3,3,15,,,,,,,,,,,22.795583200000692,22.795583200000692,22.795583200000692,22.795583200000692,22.795583200000692,m,1,0.6097318999964045,23.427998099999968,23.928849299998546,,,001,jack,2022-12-31_01h54.15.243,MentalRot,2022.2.1,60.05064671484583,
0,0,n,n,0,0,4,4,0,,,,,,,,,,,23.928849299998546,23.928849299998546,23.928849299998546,23.928849299998546,23.928849299998546,n,1,0.5571029999991879,24.5112838999994,25.012051300000167,,,001,jack,2022-12-31_01h54.15.243,MentalRot,2022.2.1,60.05064671484583,
0,135,y,m,135,0,5,5,7,,,,,,,,,,,25.012051300000167,25.012051300000167,25.012051300000167,25.012051300000167,25.012051300000167,m,1,0.7379176999966148,25.778232199998456,26.279085300004226,,,001,jack,2022-12-31_01h54.15.243,MentalRot,2022.2.1,60.05064671484583,
0,90,y,m,90,0,6,6,5,,,,,,,,,,,26.279085300004226,26.279085300004226,26.279085300004226,26.279085300004226,26.279085300004226,m,1,0.5585140999974101,26.86156420000043,27.3618992000047,,,001,jack,2022-12-31_01h54.15.243,MentalRot,2022.2.1,60.05064671484583,
0,90,n,n,90,0,7,7,4,,,,,,,,,,,27.3618992000047,27.3618992000047,27.3618992000047,27.3618992000047,27.3618992000047,n,1,0.5959862999952747,27.97786620000261,28.47873470000195,,,001,jack,2022-12-31_01h54.15.243,MentalRot,2022.2.1,60.05064671484583,
0,225,n,n,225,0,8,8,10,,,,,,,,,,,28.47873470000195,28.47873470000195,28.47873470000195,28.47873470000195,28.47873470000195,n,1,0.8078780999931041,29.310898600000655,29.811954600001627,,,001,jack,2022-12-31_01h54.15.243,MentalRot,2022.2.1,60.05064671484583,
0,270,n,n,270,0,9,9,12,,,,,,,,,,,29.811954600001627,29.811954600001627,29.811954600001627,29.811954600001627,29.811954600001627,m,0,0.5055422999939765,30.34466870000324,30.84526580000238,,,001,jack,2022-12-31_01h54.15.243,MentalRot,2022.2.1,60.05064671484583,
0,270,y,m,270,0,10,10,13,,,,,,,,,,,30.84526580000238,30.84526580000238,30.84526580000238,30.84526580000238,30.84526580000238,m,1,0.5685772999931942,31.44457990000228,31.944990700001654,,,001,jack,2022-12-31_01h54.15.243,MentalRot,2022.2.1,60.05064671484583,
0,225,y,m,225,0,11,11,11,,,,,,,,,,,31.944990700001654,31.944990700001654,31.944990700001654,31.944990700001654,31.944990700001654,m,1,1.132199399995443,33.094812499999534,33.59529820000171,,,001,jack,2022-12-31_01h54.15.243,MentalRot,2022.2.1,60.05064671484583,
0,315,n,n,315,0,12,12,14,,,,,,,,,,,33.59529820000171,33.59529820000171,33.59529820000171,33.59529820000171,33.59529820000171,n,1,0.6018380999958026,34.22802210000373,34.728619100002106,,,001,jack,2022-12-31_01h54.15.243,MentalRot,2022.2.1,60.05064671484583,
0,0,y,m,0,0,13,13,1,,,,,,,,,,,34.728619100002106,34.728619100002106,34.728619100002106,34.728619100002106,34.728619100002106,m,1,0.5248937999931513,35.27798780000012,35.77835939999932,,,001,jack,2022-12-31_01h54.15.243,MentalRot,2022.2.1,60.05064671484583,
0,45,n,n,45,0,14,14,2,,,,,,,,,,,35.77835939999932,35.77835939999932,35.77835939999932,35.77835939999932,35.77835939999932,n,1,0.6028810999923735,36.411694200003694,36.91145099999994,,,001,jack,2022-12-31_01h54.15.243,MentalRot,2022.2.1,60.05064671484583,
0,45,y,m,45,0,15,15,3,,,,,,,,,,,36.91145099999994,36.91145099999994,36.91145099999994,36.91145099999994,36.91145099999994,m,1,0.517874799996207,37.46111070000188,37.96157800000219,,,001,jack,2022-12-31_01h54.15.243,MentalRot,2022.2.1,60.05064671484583,
0,0,n,n,0,1,0,16,0,,,,,,,,,,,37.96157800000219,37.96157800000219,37.96157800000219,37.96157800000219,37.96157800000219,n,1,0.549519499996677,38.527508700004546,39.028043099999195,,,001,jack,2022-12-31_01h54.15.243,MentalRot,2022.2.1,60.05064671484583,
0,135,n,n,135,1,1,17,6,,,,,,,,,,,39.028043099999195,39.028043099999195,39.028043099999195,39.028043099999195,39.028043099999195,n,1,0.6096152999962214,39.661016899997776,40.16155430000072,,,001,jack,2022-12-31_01h54.15.243,MentalRot,2022.2.1,60.05064671484583,
0,225,n,n,225,1,2,18,10,,,,,,,,,,,40.16155430000072,40.16155430000072,40.16155430000072,40.16155430000072,40.16155430000072,n,1,0.8997153999953298,41.07767550000426,41.57832530000451,,,001,jack,2022-12-31_01h54.15.243,MentalRot,2022.2.1,60.05064671484583,
0,270,n,n,270,1,3,19,12,,,,,,,,,,,41.57832530000451,41.57832530000451,41.57832530000451,41.57832530000451,41.57832530000451,n,1,0.7147976999985985,42.31147439999768,42.81145539999852,,,001,jack,2022-12-31_01h54.15.243,MentalRot,2022.2.1,60.05064671484583,
0,180,n,n,180,1,4,20,8,,,,,,,,,,,42.81145539999852,42.81145539999852,42.81145539999852,42.81145539999852,42.81145539999852,n,1,0.6974876999956905,43.52760980000312,44.02821599999879,,,001,jack,2022-12-31_01h54.15.243,MentalRot,2022.2.1,60.05064671484583,
0,315,y,m,315,1,5,21,15,,,,,,,,,,,44.02821599999879,44.02821599999879,44.02821599999879,44.02821599999879,44.02821599999879,m,1,0.6820279000021401,44.727560600003926,45.22926960000041,,,001,jack,2022-12-31_01h54.15.243,MentalRot,2022.2.1,60.05064671484583,
0,315,n,n,315,1,6,22,14,,,,,,,,,,,45.22926960000041,45.22926960000041,45.22926960000041,45.22926960000041,45.22926960000041,n,1,0.53605129999778,45.79371640000318,46.29465300000447,,,001,jack,2022-12-31_01h54.15.243,MentalRot,2022.2.1,60.05064671484583,
0,180,y,m,180,1,7,23,9,,,,,,,,,,,46.29465300000447,46.29465300000447,46.29465300000447,46.29465300000447,46.29465300000447,m,1,0.6067484999948647,46.92756450000161,47.42812440000125,,,001,jack,2022-12-31_01h54.15.243,MentalRot,2022.2.1,60.05064671484583,
0,90,y,m,90,1,8,24,5,,,,,,,,,,,47.42812440000125,47.42812440000125,47.42812440000125,47.42812440000125,47.42812440000125,m,1,0.6256321999971988,48.077063500000804,48.577801100000215,,,001,jack,2022-12-31_01h54.15.243,MentalRot,2022.2.1,60.05064671484583,
0,270,y,m,270,1,9,25,13,,,,,,,,,,,48.577801100000215,48.577801100000215,48.577801100000215,48.577801100000215,48.577801100000215,n,0,0.6035338999936357,49.21067459999904,49.71125380000012,,,001,jack,2022-12-31_01h54.15.243,MentalRot,2022.2.1,60.05064671484583,
0,45,y,m,45,1,10,26,3,,,,,,,,,,,49.71125380000012,49.71125380000012,49.71125380000012,49.71125380000012,49.71125380000012,m,1,0.5185555999996723,50.26014209999994,50.761845200002426,,,001,jack,2022-12-31_01h54.15.243,MentalRot,2022.2.1,60.05064671484583,
0,135,y,m,135,1,11,27,7,,,,,,,,,,,50.761845200002426,50.761845200002426,50.761845200002426,50.761845200002426,50.761845200002426,m,1,0.53149129999656,51.3107577999981,51.81105519999983,,,001,jack,2022-12-31_01h54.15.243,MentalRot,2022.2.1,60.05064671484583,
0,90,n,n,90,1,12,28,4,,,,,,,,,,,51.81105519999983,51.81105519999983,51.81105519999983,51.81105519999983,51.81105519999983,n,1,0.5864442999954917,52.42695149999781,52.92805809999845,,,001,jack,2022-12-31_01h54.15.243,MentalRot,2022.2.1,60.05064671484583,
0,0,y,m,0,1,13,29,1,,,,,,,,,,,52.92805809999845,52.92805809999845,52.92805809999845,52.92805809999845,52.92805809999845,m,1,0.5174411999978474,53.477368100000604,53.97761100000207,,,001,jack,2022-12-31_01h54.15.243,MentalRot,2022.2.1,60.05064671484583,
0,45,n,n,45,1,14,30,2,,,,,,,,,,,53.97761100000207,53.97761100000207,53.97761100000207,53.97761100000207,53.97761100000207,n,1,0.6114881999965291,54.6104592000047,55.11074290000397,,,001,jack,2022-12-31_01h54.15.243,MentalRot,2022.2.1,60.05064671484583,
0,225,y,m,225,1,15,31,11,,,,,,,,,,,55.11074290000397,55.11074290000397,55.11074290000397,55.11074290000397,55.11074290000397,m,1,0.5753723999951035,55.71007230000396,56.21095729999797,,,001,jack,2022-12-31_01h54.15.243,MentalRot,2022.2.1,60.05064671484583,
0,90,y,m,90,2,0,32,5,,,,,,,,,,,56.21095729999797,56.21095729999797,56.21095729999797,56.21095729999797,56.21095729999797,m,1,0.5704871999987517,56.809966100001475,57.31086760000471,,,001,jack,2022-12-31_01h54.15.243,MentalRot,2022.2.1,60.05064671484583,
0,45,y,m,45,2,1,33,3,,,,,,,,,,,57.31086760000471,57.31086760000471,57.31086760000471,57.31086760000471,57.31086760000471,m,1,0.5263176999942516,57.86000230000354,58.36095110000315,,,001,jack,2022-12-31_01h54.15.243,MentalRot,2022.2.1,60.05064671484583,
0,315,y,m,315,2,2,34,15,,,,,,,,,,,58.36095110000315,58.36095110000315,58.36095110000315,58.36095110000315,58.36095110000315,m,1,0.5091991999943275,58.89318389999971,59.39426459999959,,,001,jack,2022-12-31_01h54.15.243,MentalRot,2022.2.1,60.05064671484583,
0,0,y,m,0,2,3,35,1,,,,,,,,,,,59.39426459999959,59.39426459999959,59.39426459999959,59.39426459999959,59.39426459999959,m,1,0.4927274000001489,59.90973710000253,60.410584900004324,,,001,jack,2022-12-31_01h54.15.243,MentalRot,2022.2.1,60.05064671484583,
0,180,n,n,180,2,4,36,8,,,,,,,,,,,60.410584900004324,60.410584900004324,60.410584900004324,60.410584900004324,60.410584900004324,n,1,0.9084373000005144,61.34348219999811,61.844056400004774,,,001,jack,2022-12-31_01h54.15.243,MentalRot,2022.2.1,60.05064671484583,
0,270,y,m,270,2,5,37,13,,,,,,,,,,,61.844056400004774,61.844056400004774,61.844056400004774,61.844056400004774,61.844056400004774,m,1,0.578364100001636,62.4428728999992,62.94361899999785,,,001,jack,2022-12-31_01h54.15.243,MentalRot,2022.2.1,60.05064671484583,
0,135,n,n,135,2,6,38,6,,,,,,,,,,,62.94361899999785,62.94361899999785,62.94361899999785,62.94361899999785,62.94361899999785,n,1,0.63831349999964,63.61018740000145,64.11024270000053,,,001,jack,2022-12-31_01h54.15.243,MentalRot,2022.2.1,60.05064671484583,
0,180,y,m,180,2,7,39,9,,,,,,,,,,,64.11024270000053,64.11024270000053,64.11024270000053,64.11024270000053,64.11024270000053,m,1,0.5836278999995557,64.72645069999999,65.22715730000346,,,001,jack,2022-12-31_01h54.15.243,MentalRot,2022.2.1,60.05064671484583,
0,225,n,n,225,2,8,40,10,,,,,,,,,,,65.22715730000346,65.22715730000346,65.22715730000346,65.22715730000346,65.22715730000346,n,1,0.642354499999783,65.89318720000301,66.3937877999997,,,001,jack,2022-12-31_01h54.15.243,MentalRot,2022.2.1,60.05064671484583,
0,225,y,m,225,2,9,41,11,,,,,,,,,,,66.3937877999997,66.3937877999997,66.3937877999997,66.3937877999997,66.3937877999997,m,1,0.6207825999954366,67.04283240000223,67.5440219000011,,,001,jack,2022-12-31_01h54.15.243,MentalRot,2022.2.1,60.05064671484583,
0,0,n,n,0,2,10,42,0,,,,,,,,,,,67.5440219000011,67.5440219000011,67.5440219000011,67.5440219000011,67.5440219000011,n,1,0.5335220999986632,68.10913419999997,68.61096750000434,,,001,jack,2022-12-31_01h54.15.243,MentalRot,2022.2.1,60.05064671484583,
0,135,y,m,135,2,11,43,7,,,,,,,,,,,68.61096750000434,68.61096750000434,68.61096750000434,68.61096750000434,68.61096750000434,m,1,0.5786125999948126,69.20931659999769,69.71010399999795,,,001,jack,2022-12-31_01h54.15.243,MentalRot,2022.2.1,60.05064671484583,
0,90,n,n,90,2,12,44,4,,,,,,,,,,,69.71010399999795,69.71010399999795,69.71010399999795,69.71010399999795,69.71010399999795,n,1,0.7192230000000563,70.45949290000135,70.96033480000187,,,001,jack,2022-12-31_01h54.15.243,MentalRot,2022.2.1,60.05064671484583,
0,315,n,n,315,2,13,45,14,,,,,,,,,,,70.96033480000187,70.96033480000187,70.96033480000187,70.96033480000187,70.96033480000187,n,1,0.6136228999966988,71.59239250000246,72.09344740000233,,,001,jack,2022-12-31_01h54.15.243,MentalRot,2022.2.1,60.05064671484583,
0,45,n,n,45,2,14,46,2,,,,,,,,,,,72.09344740000233,72.09344740000233,72.09344740000233,72.09344740000233,72.09344740000233,n,1,0.6720940999948652,72.79262510000262,73.29318359999888,,,001,jack,2022-12-31_01h54.15.243,MentalRot,2022.2.1,60.05064671484583,
0,270,n,n,270,2,15,47,12,,,,,,,,,,,73.29318359999888,73.29318359999888,73.29318359999888,73.29318359999888,73.29318359999888,n,1,0.6407855999932508,73.95899450000434,74.45977520000451,,,001,jack,2022-12-31_01h54.15.243,MentalRot,2022.2.1,60.05064671484583,
0,180,n,n,180,3,0,48,8,,,,,,,,,,,74.45977520000451,74.45977520000451,74.45977520000451,74.45977520000451,74.45977520000451,n,1,0.6427084999959334,75.1255736000021,75.62646189999941,,,001,jack,2022-12-31_01h54.15.243,MentalRot,2022.2.1,60.05064671484583,
0,0,n,n,0,3,1,49,0,,,,,,,,,,,75.62646189999941,75.62646189999941,75.62646189999941,75.62646189999941,75.62646189999941,n,1,0.5715547999934643,76.2255443000031,76.727784900002,,,001,jack,2022-12-31_01h54.15.243,MentalRot,2022.2.1,60.05064671484583,
0,135,y,m,135,3,2,50,7,,,,,,,,,,,76.727784900002,76.727784900002,76.727784900002,76.727784900002,76.727784900002,m,1,0.5336308999976609,77.29232390000107,77.79280390000349,,,001,jack,2022-12-31_01h54.15.243,MentalRot,2022.2.1,60.05064671484583,
0,225,y,m,225,3,3,51,11,,,,,,,,,,,77.79280390000349,77.79280390000349,77.79280390000349,77.79280390000349,77.79280390000349,m,1,1.0766785999949207,78.89202510000177,79.39331720000337,,,001,jack,2022-12-31_01h54.15.243,MentalRot,2022.2.1,60.05064671484583,
0,270,n,n,270,3,4,52,12,,,,,,,,,,,79.39331720000337,79.39331720000337,79.39331720000337,79.39331720000337,79.39331720000337,n,1,0.6601640000008047,80.07551899999817,80.57643680000183,,,001,jack,2022-12-31_01h54.15.243,MentalRot,2022.2.1,60.05064671484583,
0,90,y,m,90,3,5,53,5,,,,,,,,,,,80.57643680000183,80.57643680000183,80.57643680000183,80.57643680000183,80.57643680000183,m,1,0.598033399990527,81.19220479999785,81.69306720000168,,,001,jack,2022-12-31_01h54.15.243,MentalRot,2022.2.1,60.05064671484583,
0,90,n,n,90,3,6,54,4,,,,,,,,,,,81.69306720000168,81.69306720000168,81.69306720000168,81.69306720000168,81.69306720000168,n,1,0.656447899993509,82.37542979999853,82.8765618000034,,,001,jack,2022-12-31_01h54.15.243,MentalRot,2022.2.1,60.05064671484583,
0,315,n,n,315,3,7,55,14,,,,,,,,,,,82.8765618000034,82.8765618000034,82.8765618000034,82.8765618000034,82.8765618000034,n,1,0.5847296999927494,83.49287829999957,83.99308430000383,,,001,jack,2022-12-31_01h54.15.243,MentalRot,2022.2.1,60.05064671484583,
0,225,n,n,225,3,8,56,10,,,,,,,,,,,83.99308430000383,83.99308430000383,83.99308430000383,83.99308430000383,83.99308430000383,n,1,0.6362935999932233,84.65894900000421,85.1596342000048,,,001,jack,2022-12-31_01h54.15.243,MentalRot,2022.2.1,60.05064671484583,
0,0,y,m,0,3,9,57,1,,,,,,,,,,,85.1596342000048,85.1596342000048,85.1596342000048,85.1596342000048,85.1596342000048,m,1,0.5819829999963986,85.75899180000124,86.25924550000491,,,001,jack,2022-12-31_01h54.15.243,MentalRot,2022.2.1,60.05064671484583,
0,180,y,m,180,3,10,58,9,,,,,,,,,,,86.25924550000491,86.25924550000491,86.25924550000491,86.25924550000491,86.25924550000491,m,1,0.7076548999975785,86.99168089999876,87.49254970000038,,,001,jack,2022-12-31_01h54.15.243,MentalRot,2022.2.1,60.05064671484583,
0,45,n,n,45,3,11,59,2,,,,,,,,,,,87.49254970000038,87.49254970000038,87.49254970000038,87.49254970000038,87.49254970000038,n,1,0.6328900999942562,88.1421038000044,88.64248320000479,,,001,jack,2022-12-31_01h54.15.243,MentalRot,2022.2.1,60.05064671484583,
0,315,y,m,315,3,12,60,15,,,,,,,,,,,88.64248320000479,88.64248320000479,88.64248320000479,88.64248320000479,88.64248320000479,m,1,0.523566199997731,89.19152369999938,89.69240690000152,,,001,jack,2022-12-31_01h54.15.243,MentalRot,2022.2.1,60.05064671484583,
0,45,y,m,45,3,13,61,3,,,,,,,,,,,89.69240690000152,89.69240690000152,89.69240690000152,89.69240690000152,89.69240690000152,m,1,0.6007461999906809,90.32521619999898,90.82557430000452,,,001,jack,2022-12-31_01h54.15.243,MentalRot,2022.2.1,60.05064671484583,
0,270,y,m,270,3,14,62,13,,,,,,,,,,,90.82557430000452,90.82557430000452,90.82557430000452,90.82557430000452,90.82557430000452,m,1,0.6918568999972194,91.5419183999984,92.0425624999989,,,001,jack,2022-12-31_01h54.15.243,MentalRot,2022.2.1,60.05064671484583,
0,135,n,n,135,3,15,63,6,,,,,,,,,,,92.0425624999989,92.0425624999989,92.0425624999989,92.0425624999989,92.0425624999989,n,1,0.6109959999957937,92.67481450000196,93.17550599999959,,,001,jack,2022-12-31_01h54.15.243,MentalRot,2022.2.1,60.05064671484583,
0,0,n,n,0,4,0,64,0,,,,,,,,,,,93.17550599999959,93.17550599999959,93.17550599999959,93.17550599999959,93.17550599999959,n,1,0.5590167999980622,93.75823250000394,94.25880020000477,,,001,jack,2022-12-31_01h54.15.243,MentalRot,2022.2.1,60.05064671484583,
0,90,y,m,90,4,1,65,5,,,,,,,,,,,94.25880020000477,94.25880020000477,94.25880020000477,94.25880020000477,94.25880020000477,m,1,1.0582460000005085,95.34154649999982,95.84277190000284,,,001,jack,2022-12-31_01h54.15.243,MentalRot,2022.2.1,60.05064671484583,
0,0,y,m,0,4,2,66,1,,,,,,,,,,,95.84277190000284,95.84277190000284,95.84277190000284,95.84277190000284,95.84277190000284,m,1,0.4756511000014143,96.34128120000241,96.84268590000283,,,001,jack,2022-12-31_01h54.15.243,MentalRot,2022.2.1,60.05064671484583,
0,45,n,n,45,4,3,67,2,,,,,,,,,,,96.84268590000283,96.84268590000283,96.84268590000283,96.84268590000283,96.84268590000283,n,1,0.5704791999960435,97.44182269999874,97.94258460000128,,,001,jack,2022-12-31_01h54.15.243,MentalRot,2022.2.1,60.05064671484583,
0,45,y,m,45,4,4,68,3,,,,,,,,,,,97.94258460000128,97.94258460000128,97.94258460000128,97.94258460000128,97.94258460000128,m,1,0.559892299999774,98.52469370000472,99.02511650000088,,,001,jack,2022-12-31_01h54.15.243,MentalRot,2022.2.1,60.05064671484583,
0,270,n,n,270,4,5,69,12,,,,,,,,,,,99.02511650000088,99.02511650000088,99.02511650000088,99.02511650000088,99.02511650000088,n,1,0.5886092999935499,99.64159450000443,100.14256269999896,,,001,jack,2022-12-31_01h54.15.243,MentalRot,2022.2.1,60.05064671484583,
0,135,n,n,135,4,6,70,6,,,,,,,,,,,100.14256269999896,100.14256269999896,100.14256269999896,100.14256269999896,100.14256269999896,n,1,0.7029007999954047,100.87553409999964,101.37518010000349,,,001,jack,2022-12-31_01h54.15.243,MentalRot,2022.2.1,60.05064671484583,
0,135,y,m,135,4,7,71,7,,,,,,,,,,,101.37518010000349,101.37518010000349,101.37518010000349,101.37518010000349,101.37518010000349,m,1,0.5343353999996907,101.94093969999813,102.44224109999777,,,001,jack,2022-12-31_01h54.15.243,MentalRot,2022.2.1,60.05064671484583,
0,315,n,n,315,4,8,72,14,,,,,,,,,,,102.44224109999777,102.44224109999777,102.44224109999777,102.44224109999777,102.44224109999777,n,1,0.49937239999417216,102.95792910000455,103.4586305000048,,,001,jack,2022-12-31_01h54.15.243,MentalRot,2022.2.1,60.05064671484583,
0,90,n,n,90,4,9,73,4,,,,,,,,,,,103.4586305000048,103.4586305000048,103.4586305000048,103.4586305000048,103.4586305000048,n,1,0.5793532999960007,104.05785260000266,104.55890820000059,,,001,jack,2022-12-31_01h54.15.243,MentalRot,2022.2.1,60.05064671484583,
0,225,n,n,225,4,10,74,10,,,,,,,,,,,104.55890820000059,104.55890820000059,104.55890820000059,104.55890820000059,104.55890820000059,n,1,0.582293599996774,105.15797929999826,105.65869989999919,,,001,jack,2022-12-31_01h54.15.243,MentalRot,2022.2.1,60.05064671484583,
0,180,y,m,180,4,11,75,9,,,,,,,,,,,105.65869989999919,105.65869989999919,105.65869989999919,105.65869989999919,105.65869989999919,m,1,0.5713683999929344,106.25773710000067,106.75906860000396,,,001,jack,2022-12-31_01h54.15.243,MentalRot,2022.2.1,60.05064671484583,
0,270,y,m,270,4,12,76,13,,,,,,,,,,,106.75906860000396,106.75906860000396,106.75906860000396,106.75906860000396,106.75906860000396,m,1,0.7030802000008407,107.49082620000263,107.99188560000039,,,001,jack,2022-12-31_01h54.15.243,MentalRot,2022.2.1,60.05064671484583,
0,180,n,n,180,4,13,77,8,,,,,,,,,,,107.99188560000039,107.99188560000039,107.99188560000039,107.99188560000039,107.99188560000039,n,1,0.782453899999382,108.79073900000367,109.29139379999833,,,001,jack,2022-12-31_01h54.15.243,MentalRot,2022.2.1,60.05064671484583,
0,315,y,m,315,4,14,78,15,,,,,,,,,,,109.29139379999833,109.29139379999833,109.29139379999833,109.29139379999833,109.29139379999833,m,1,0.5062446999945678,109.82438130000082,110.32457920000161,,,001,jack,2022-12-31_01h54.15.243,MentalRot,2022.2.1,60.05064671484583,
0,225,y,m,225,4,15,79,11,,,,,,,,,,,110.32457920000161,110.32457920000161,110.32457920000161,110.32457920000161,110.32457920000161,m,1,0.6005753999997978,110.95752740000171,111.45784360000107,,,001,jack,2022-12-31_01h54.15.243,MentalRot,2022.2.1,60.05064671484583,
0,315,n,n,315,5,0,80,14,,,,,,,,,,,111.45784360000107,111.45784360000107,111.45784360000107,111.45784360000107,111.45784360000107,n,1,0.5631503999902634,112.04095799999777,112.5412856000039,,,001,jack,2022-12-31_01h54.15.243,MentalRot,2022.2.1,60.05064671484583,
0,90,y,m,90,5,1,81,5,,,,,,,,,,,112.5412856000039,112.5412856000039,112.5412856000039,112.5412856000039,112.5412856000039,m,1,0.4884537999969325,113.05780510000477,113.55850369999825,,,001,jack,2022-12-31_01h54.15.243,MentalRot,2022.2.1,60.05064671484583,
0,0,y,m,0,5,2,82,1,,,,,,,,,,,113.55850369999825,113.55850369999825,113.55850369999825,113.55850369999825,113.55850369999825,m,1,0.542991999995138,114.12496200000169,114.62505819999933,,,001,jack,2022-12-31_01h54.15.243,MentalRot,2022.2.1,60.05064671484583,
0,315,y,m,315,5,3,83,15,,,,,,,,,,,114.62505819999933,114.62505819999933,114.62505819999933,114.62505819999933,114.62505819999933,m,1,0.47710689999803435,115.12405299999955,115.62480270000378,,,001,jack,2022-12-31_01h54.15.243,MentalRot,2022.2.1,60.05064671484583,
0,225,n,n,225,5,4,84,10,,,,,,,,,,,115.62480270000378,115.62480270000378,115.62480270000378,115.62480270000378,115.62480270000378,n,1,0.6530897999909939,116.30751030000101,116.8092856000003,,,001,jack,2022-12-31_01h54.15.243,MentalRot,2022.2.1,60.05064671484583,
0,180,n,n,180,5,5,85,8,,,,,,,,,,,116.8092856000003,116.8092856000003,116.8092856000003,116.8092856000003,116.8092856000003,n,1,0.6045706000004429,117.44075629999861,117.94137249999767,,,001,jack,2022-12-31_01h54.15.243,MentalRot,2022.2.1,60.05064671484583,
0,90,n,n,90,5,6,86,4,,,,,,,,,,,117.94137249999767,117.94137249999767,117.94137249999767,117.94137249999767,117.94137249999767,n,1,0.6654538999937358,118.62372619999951,119.1244766000018,,,001,jack,2022-12-31_01h54.15.243,MentalRot,2022.2.1,60.05064671484583,
0,45,n,n,45,5,7,87,2,,,,,,,,,,,119.1244766000018,119.1244766000018,119.1244766000018,119.1244766000018,119.1244766000018,n,1,0.5136648999978206,119.65683300000092,120.15811200000462,,,001,jack,2022-12-31_01h54.15.243,MentalRot,2022.2.1,60.05064671484583,
0,270,n,n,270,5,8,88,12,,,,,,,,,,,120.15811200000462,120.15811200000462,120.15811200000462,120.15811200000462,120.15811200000462,n,1,0.6083392000000458,120.79031470000336,121.29126660000475,,,001,jack,2022-12-31_01h54.15.243,MentalRot,2022.2.1,60.05064671484583,
0,180,y,m,180,5,9,89,9,,,,,,,,,,,121.29126660000475,121.29126660000475,121.29126660000475,121.29126660000475,121.29126660000475,m,1,0.6827364999917336,122.00661319999926,122.50730670000485,,,001,jack,2022-12-31_01h54.15.243,MentalRot,2022.2.1,60.05064671484583,
0,45,y,m,45,5,10,90,3,,,,,,,,,,,122.50730670000485,122.50730670000485,122.50730670000485,122.50730670000485,122.50730670000485,m,1,0.5310199999948964,123.05668590000278,123.55802720000065,,,001,jack,2022-12-31_01h54.15.243,MentalRot,2022.2.1,60.05064671484583,
0,135,n,n,135,5,11,91,6,,,,,,,,,,,123.55802720000065,123.55802720000065,123.55802720000065,123.55802720000065,123.55802720000065,n,1,0.7510240999981761,124.34010610000405,124.84100060000492,,,001,jack,2022-12-31_01h54.15.243,MentalRot,2022.2.1,60.05064671484583,
0,135,y,m,135,5,12,92,7,,,,,,,,,,,124.84100060000492,124.84100060000492,124.84100060000492,124.84100060000492,124.84100060000492,m,1,0.5884995999949751,125.45666590000474,125.95764890000282,,,001,jack,2022-12-31_01h54.15.243,MentalRot,2022.2.1,60.05064671484583,
0,270,y,m,270,5,13,93,13,,,,,,,,,,,125.95764890000282,125.95764890000282,125.95764890000282,125.95764890000282,125.95764890000282,n,0,0.5603945999973803,126.54036859999906,127.04070209999918,,,001,jack,2022-12-31_01h54.15.243,MentalRot,2022.2.1,60.05064671484583,
0,0,n,n,0,5,14,94,0,,,,,,,,,,,127.04070209999918,127.04070209999918,127.04070209999918,127.04070209999918,127.04070209999918,n,1,0.5819803999984288,127.640112400004,128.14073279999866,,,001,jack,2022-12-31_01h54.15.243,MentalRot,2022.2.1,60.05064671484583,
0,225,y,m,225,5,15,95,11,,,,,,,,,,,128.14073279999866,128.14073279999866,128.14073279999866,128.14073279999866,128.14073279999866,m,1,0.7448642999952426,128.90659430000233,129.4077630000029,,,001,jack,2022-12-31_01h54.15.243,MentalRot,2022.2.1,60.05064671484583,
0,45,n,n,45,6,0,96,2,,,,,,,,,,,129.4077630000029,129.4077630000029,129.4077630000029,129.4077630000029,129.4077630000029,n,1,0.5582674000033876,129.98975300000166,130.49066490000405,,,001,jack,2022-12-31_01h54.15.243,MentalRot,2022.2.1,60.05064671484583,
0,225,y,m,225,6,1,97,11,,,,,,,,,,,130.49066490000405,130.49066490000405,130.49066490000405,130.49066490000405,130.49066490000405,m,1,0.5795929000014439,131.09012749999965,131.59082350000244,,,001,jack,2022-12-31_01h54.15.243,MentalRot,2022.2.1,60.05064671484583,
0,270,n,n,270,6,2,98,12,,,,,,,,,,,131.59082350000244,131.59082350000244,131.59082350000244,131.59082350000244,131.59082350000244,n,1,0.758836799999699,132.3735177999988,132.87406190000183,,,001,jack,2022-12-31_01h54.15.243,MentalRot,2022.2.1,60.05064671484583,
0,225,n,n,225,6,3,99,10,,,,,,,,,,,132.87406190000183,132.87406190000183,132.87406190000183,132.87406190000183,132.87406190000183,n,1,0.6513822999986587,133.55619400000433,134.05807710000227,,,001,jack,2022-12-31_01h54.15.243,MentalRot,2022.2.1,60.05064671484583,
0,270,y,m,270,6,4,100,13,,,,,,,,,,,134.05807710000227,134.05807710000227,134.05807710000227,134.05807710000227,134.05807710000227,m,1,0.651268000001437,134.73953110000002,135.24063890000252,,,001,jack,2022-12-31_01h54.15.243,MentalRot,2022.2.1,60.05064671484583,
0,45,y,m,45,6,5,101,3,,,,,,,,,,,135.24063890000252,135.24063890000252,135.24063890000252,135.24063890000252,135.24063890000252,m,1,0.6294118000005255,135.8909879999992,136.39143490000424,,,001,jack,2022-12-31_01h54.15.243,MentalRot,2022.2.1,60.05064671484583,
0,180,n,n,180,6,6,102,8,,,,,,,,,,,136.39143490000424,136.39143490000424,136.39143490000424,136.39143490000424,136.39143490000424,n,1,0.7981541999979527,137.20673510000051,137.71195960000477,,,001,jack,2022-12-31_01h54.15.243,MentalRot,2022.2.1,60.05064671484583,
0,90,n,n,90,6,7,103,4,,,,,,,,,,,137.71195960000477,137.71195960000477,137.71195960000477,137.71195960000477,137.71195960000477,n,1,0.6057346999950823,138.3394380000027,138.8404898000008,,,001,jack,2022-12-31_01h54.15.243,MentalRot,2022.2.1,60.05064671484583,
0,315,y,m,315,6,8,104,15,,,,,,,,,,,138.8404898000008,138.8404898000008,138.8404898000008,138.8404898000008,138.8404898000008,m,1,0.485212200001115,139.356186099998,139.8569656000036,,,001,jack,2022-12-31_01h54.15.243,MentalRot,2022.2.1,60.05064671484583,
0,0,n,n,0,6,9,105,0,,,,,,,,,,,139.8569656000036,139.8569656000036,139.8569656000036,139.8569656000036,139.8569656000036,n,1,0.5008574999956181,140.38974920000328,140.8901595999996,,,001,jack,2022-12-31_01h54.15.243,MentalRot,2022.2.1,60.05064671484583,
0,180,y,m,180,6,10,106,9,,,,,,,,,,,140.8901595999996,140.8901595999996,140.8901595999996,140.8901595999996,140.8901595999996,m,1,0.619591999995464,141.53954859999794,142.04027830000268,,,001,jack,2022-12-31_01h54.15.243,MentalRot,2022.2.1,60.05064671484583,
0,90,y,m,90,6,11,107,5,,,,,,,,,,,142.04027830000268,142.04027830000268,142.04027830000268,142.04027830000268,142.04027830000268,m,1,0.5091927999965264,142.5729388000036,143.07322289999865,,,001,jack,2022-12-31_01h54.15.243,MentalRot,2022.2.1,60.05064671484583,
0,0,y,m,0,6,12,108,1,,,,,,,,,,,143.07322289999865,143.07322289999865,143.07322289999865,143.07322289999865,143.07322289999865,m,1,0.5008986999964691,143.60582900000009,144.1070056000026,,,001,jack,2022-12-31_01h54.15.243,MentalRot,2022.2.1,60.05064671484583,
0,135,y,m,135,6,13,109,7,,,,,,,,,,,144.1070056000026,144.1070056000026,144.1070056000026,144.1070056000026,144.1070056000026,m,1,0.5703117000011844,144.706457100001,145.2066307999994,,,001,jack,2022-12-31_01h54.15.243,MentalRot,2022.2.1,60.05064671484583,
0,135,n,n,135,6,14,110,6,,,,,,,,,,,145.2066307999994,145.2066307999994,145.2066307999994,145.2066307999994,145.2066307999994,n,1,0.5425059999979567,145.77299399999902,146.27343890000338,,,001,jack,2022-12-31_01h54.15.243,MentalRot,2022.2.1,60.05064671484583,
0,315,n,n,315,6,15,111,14,,,,,,,,,,,146.27343890000338,146.27343890000338,146.27343890000338,146.27343890000338,146.27343890000338,n,1,0.5484188999980688,146.8391937999986,147.34001130000252,,,001,jack,2022-12-31_01h54.15.243,MentalRot,2022.2.1,60.05064671484583,
0,45,n,n,45,7,0,112,2,,,,,,,,,,,147.34001130000252,147.34001130000252,147.34001130000252,147.34001130000252,147.34001130000252,n,1,0.5062221999978647,147.87208200000168,148.37344440000015,,,001,jack,2022-12-31_01h54.15.243,MentalRot,2022.2.1,60.05064671484583,
0,90,n,n,90,7,1,113,4,,,,,,,,,,,148.37344440000015,148.37344440000015,148.37344440000015,148.37344440000015,148.37344440000015,n,1,0.5677945999923395,148.9724161999984,149.47308950000297,,,001,jack,2022-12-31_01h54.15.243,MentalRot,2022.2.1,60.05064671484583,
0,0,y,m,0,7,2,114,1,,,,,,,,,,,149.47308950000297,149.47308950000297,149.47308950000297,149.47308950000297,149.47308950000297,m,1,0.500512799997523,150.0056601000033,150.50664939999842,,,001,jack,2022-12-31_01h54.15.243,MentalRot,2022.2.1,60.05064671484583,
0,90,y,m,90,7,3,115,5,,,,,,,,,,,150.50664939999842,150.50664939999842,150.50664939999842,150.50664939999842,150.50664939999842,m,1,0.49879589999181917,151.02224650000426,151.5269191000043,,,001,jack,2022-12-31_01h54.15.243,MentalRot,2022.2.1,60.05064671484583,
0,135,n,n,135,7,4,116,6,,,,,,,,,,,151.5269191000043,151.5269191000043,151.5269191000043,151.5269191000043,151.5269191000043,n,1,0.6634879999983241,152.2223937000017,152.72313360000408,,,001,jack,2022-12-31_01h54.15.243,MentalRot,2022.2.1,60.05064671484583,
0,180,n,n,180,7,5,117,8,,,,,,,,,,,152.72313360000408,152.72313360000408,152.72313360000408,152.72313360000408,152.72313360000408,n,1,0.6751826999970945,153.42226200000005,153.92289130000427,,,001,jack,2022-12-31_01h54.15.243,MentalRot,2022.2.1,60.05064671484583,
0,180,y,m,180,7,6,118,9,,,,,,,,,,,153.92289130000427,153.92289130000427,153.92289130000427,153.92289130000427,153.92289130000427,m,1,0.6107392999983858,154.5557220999981,155.05639550000342,,,001,jack,2022-12-31_01h54.15.243,MentalRot,2022.2.1,60.05064671484583,
0,225,y,m,225,7,7,119,11,,,,,,,,,,,155.05639550000342,155.05639550000342,155.05639550000342,155.05639550000342,155.05639550000342,m,1,0.8775284000003012,155.95505920000141,156.45671299999958,,,001,jack,2022-12-31_01h54.15.243,MentalRot,2022.2.1,60.05064671484583,
0,315,y,m,315,7,8,120,15,,,,,,,,,,,156.45671299999958,156.45671299999958,156.45671299999958,156.45671299999958,156.45671299999958,m,1,0.5485889999981737,157.02234870000393,157.52262619999965,,,001,jack,2022-12-31_01h54.15.243,MentalRot,2022.2.1,60.05064671484583,
0,45,y,m,45,7,9,121,3,,,,,,,,,,,157.52262619999965,157.52262619999965,157.52262619999965,157.52262619999965,157.52262619999965,m,1,0.5076332999960869,158.05505650000123,158.556542600003,,,001,jack,2022-12-31_01h54.15.243,MentalRot,2022.2.1,60.05064671484583,
0,135,y,m,135,7,10,122,7,,,,,,,,,,,158.556542600003,158.556542600003,158.556542600003,158.556542600003,158.556542600003,m,1,0.5702176999984658,159.15520610000385,159.65624039999966,,,001,jack,2022-12-31_01h54.15.243,MentalRot,2022.2.1,60.05064671484583,
0,270,y,m,270,7,11,123,13,,,,,,,,,,,159.65624039999966,159.65624039999966,159.65624039999966,159.65624039999966,159.65624039999966,m,1,0.5509325000020908,160.2383908000047,160.73965540000063,,,001,jack,2022-12-31_01h54.15.243,MentalRot,2022.2.1,60.05064671484583,
0,225,n,n,225,7,12,124,10,,,,,,,,,,,160.73965540000063,160.73965540000063,160.73965540000063,160.73965540000063,160.73965540000063,n,1,0.8016646000032779,161.57201129999885,162.07320070000424,,,001,jack,2022-12-31_01h54.15.243,MentalRot,2022.2.1,60.05064671484583,
0,315,n,n,315,7,13,125,14,,,,,,,,,,,162.07320070000424,162.07320070000424,162.07320070000424,162.07320070000424,162.07320070000424,n,1,0.5891788000008091,162.68820960000448,163.18917840000358,,,001,jack,2022-12-31_01h54.15.243,MentalRot,2022.2.1,60.05064671484583,
0,270,n,n,270,7,14,126,12,,,,,,,,,,,163.18917840000358,163.18917840000358,163.18917840000358,163.18917840000358,163.18917840000358,n,1,0.5367005000007339,163.75549599999795,164.25593440000375,,,001,jack,2022-12-31_01h54.15.243,MentalRot,2022.2.1,60.05064671484583,
0,0,n,n,0,7,15,127,0,,,,,,,,,,,164.25593440000375,164.25593440000375,164.25593440000375,164.25593440000375,164.25593440000375,n,1,0.5178318999969633,164.80535750000126,165.30583409999963,,,001,jack,2022-12-31_01h54.15.243,MentalRot,2022.2.1,60.05064671484583,
0,135,n,n,135,8,0,128,6,,,,,,,,,,,165.30583409999963,165.30583409999963,165.30583409999963,165.30583409999963,165.30583409999963,n,1,0.635726499996963,165.9717359999995,166.47225590000016,,,001,jack,2022-12-31_01h54.15.243,MentalRot,2022.2.1,60.05064671484583,
0,225,y,m,225,8,1,129,11,,,,,,,,,,,166.47225590000016,166.47225590000016,166.47225590000016,166.47225590000016,166.47225590000016,m,1,0.5656040999965626,167.05523410000023,167.55564700000104,,,001,jack,2022-12-31_01h54.15.243,MentalRot,2022.2.1,60.05064671484583,
0,90,n,n,90,8,2,130,4,,,,,,,,,,,167.55564700000104,167.55564700000104,167.55564700000104,167.55564700000104,167.55564700000104,n,1,0.730277800001204,168.30508479999844,168.8057958999998,,,001,jack,2022-12-31_01h54.15.243,MentalRot,2022.2.1,60.05064671484583,
0,0,n,n,0,8,3,131,0,,,,,,,,,,,168.8057958999998,168.8057958999998,168.8057958999998,168.8057958999998,168.8057958999998,n,1,0.536294599995017,169.3717484000008,169.8723800000007,,,001,jack,2022-12-31_01h54.15.243,MentalRot,2022.2.1,60.05064671484583,
0,45,y,m,45,8,4,132,3,,,,,,,,,,,169.8723800000007,169.8723800000007,169.8723800000007,169.8723800000007,169.8723800000007,m,1,0.5807325999994646,170.47166350000043,170.97225930000423,,,001,jack,2022-12-31_01h54.15.243,MentalRot,2022.2.1,60.05064671484583,
0,135,y,m,135,8,5,133,7,,,,,,,,,,,170.97225930000423,170.97225930000423,170.97225930000423,170.97225930000423,170.97225930000423,m,1,0.5854570999945281,171.58811750000314,172.0884864000036,,,001,jack,2022-12-31_01h54.15.243,MentalRot,2022.2.1,60.05064671484583,
0,90,y,m,90,8,6,134,5,,,,,,,,,,,172.0884864000036,172.0884864000036,172.0884864000036,172.0884864000036,172.0884864000036,m,1,0.5975891999987653,172.705120300001,173.20580150000023,,,001,jack,2022-12-31_01h54.15.243,MentalRot,2022.2.1,60.05064671484583,
0,180,y,m,180,8,7,135,9,,,,,,,,,,,173.20580150000023,173.20580150000023,173.20580150000023,173.20580150000023,173.20580150000023,m,1,0.6323540000012144,173.85441300000093,174.35555040000327,,,001,jack,2022-12-31_01h54.15.243,MentalRot,2022.2.1,60.05064671484583,
0,270,n,n,270,8,8,136,12,,,,,,,,,,,174.35555040000327,174.35555040000327,174.35555040000327,174.35555040000327,174.35555040000327,n,1,0.6270113999999012,175.00455669999792,175.5051134000023,,,001,jack,2022-12-31_01h54.15.243,MentalRot,2022.2.1,60.05064671484583,
0,225,n,n,225,8,9,137,10,,,,,,,,,,,175.5051134000023,175.5051134000023,175.5051134000023,175.5051134000023,175.5051134000023,n,1,0.7329094000015175,176.25464140000258,176.75540059999912,,,001,jack,2022-12-31_01h54.15.243,MentalRot,2022.2.1,60.05064671484583,
0,45,n,n,45,8,10,138,2,,,,,,,,,,,176.75540059999912,176.75540059999912,176.75540059999912,176.75540059999912,176.75540059999912,n,1,0.5788920999984839,177.3549079000004,177.855249500004,,,001,jack,2022-12-31_01h54.15.243,MentalRot,2022.2.1,60.05064671484583,
0,180,n,n,180,8,11,139,8,,,,,,,,,,,177.855249500004,177.855249500004,177.855249500004,177.855249500004,177.855249500004,n,1,0.6381572999962373,178.52122760000202,179.0217976999993,,,001,jack,2022-12-31_01h54.15.243,MentalRot,2022.2.1,60.05064671484583,
0,315,n,n,315,8,12,140,14,,,,,,,,,,,179.0217976999993,179.0217976999993,179.0217976999993,179.0217976999993,179.0217976999993,n,1,0.6554890999977943,179.70459480000136,180.20502739999938,,,001,jack,2022-12-31_01h54.15.243,MentalRot,2022.2.1,60.05064671484583,
0,0,y,m,0,8,13,141,1,,,,,,,,,,,180.20502739999938,180.20502739999938,180.20502739999938,180.20502739999938,180.20502739999938,m,1,0.4964450999905239,180.72060140000394,181.22181660000206,,,001,jack,2022-12-31_01h54.15.243,MentalRot,2022.2.1,60.05064671484583,
0,315,y,m,315,8,14,142,15,,,,,,,,,,,181.22181660000206,181.22181660000206,181.22181660000206,181.22181660000206,181.22181660000206,m,1,0.5274386000019149,181.77117949999956,182.27191830000083,,,001,jack,2022-12-31_01h54.15.243,MentalRot,2022.2.1,60.05064671484583,
0,270,y,m,270,8,15,143,13,,,,,,,,,,,182.27191830000083,182.27191830000083,182.27191830000083,182.27191830000083,182.27191830000083,m,1,0.6538722999976017,182.95389409999916,183.4550309000042,,,001,jack,2022-12-31_01h54.15.243,MentalRot,2022.2.1,60.05064671484583,
0,135,n,n,135,9,0,144,6,,,,,,,,,,,183.4550309000042,183.4550309000042,183.4550309000042,183.4550309000042,183.4550309000042,n,1,0.5669347000002745,184.05450050000218,184.55466660000093,,,001,jack,2022-12-31_01h54.15.243,MentalRot,2022.2.1,60.05064671484583,
0,45,n,n,45,9,1,145,2,,,,,,,,,,,184.55466660000093,184.55466660000093,184.55466660000093,184.55466660000093,184.55466660000093,n,1,0.5384430999984033,185.1207127000016,185.62213150000025,,,001,jack,2022-12-31_01h54.15.243,MentalRot,2022.2.1,60.05064671484583,
0,315,y,m,315,9,2,146,15,,,,,,,,,,,185.62213150000025,185.62213150000025,185.62213150000025,185.62213150000025,185.62213150000025,m,1,0.4639392999961274,186.10374940000474,186.60460310000053,,,001,jack,2022-12-31_01h54.15.243,MentalRot,2022.2.1,60.05064671484583,
0,0,n,n,0,9,3,147,0,,,,,,,,,,,186.60460310000053,186.60460310000053,186.60460310000053,186.60460310000053,186.60460310000053,n,1,0.4981800999958068,187.12088010000298,187.62111220000224,,,001,jack,2022-12-31_01h54.15.243,MentalRot,2022.2.1,60.05064671484583,
0,45,y,m,45,9,4,148,3,,,,,,,,,,,187.62111220000224,187.62111220000224,187.62111220000224,187.62111220000224,187.62111220000224,m,1,0.45635159999801544,188.1044034000006,188.60450670000137,,,001,jack,2022-12-31_01h54.15.243,MentalRot,2022.2.1,60.05064671484583,
0,270,n,n,270,9,5,149,12,,,,,,,,,,,188.60450670000137,188.60450670000137,188.60450670000137,188.60450670000137,188.60450670000137,n,1,0.6889501999976346,189.3202323000005,189.82097259999864,,,001,jack,2022-12-31_01h54.15.243,MentalRot,2022.2.1,60.05064671484583,
0,135,y,m,135,9,6,150,7,,,,,,,,,,,189.82097259999864,189.82097259999864,189.82097259999864,189.82097259999864,189.82097259999864,m,1,0.5045316999967326,190.35371750000195,190.8544722000006,,,001,jack,2022-12-31_01h54.15.243,MentalRot,2022.2.1,60.05064671484583,
0,180,y,m,180,9,7,151,9,,,,,,,,,,,190.8544722000006,190.8544722000006,190.8544722000006,190.8544722000006,190.8544722000006,m,1,0.6066219999920577,191.4869198000015,191.98807520000264,,,001,jack,2022-12-31_01h54.15.243,MentalRot,2022.2.1,60.05064671484583,
0,0,y,m,0,9,8,152,1,,,,,,,,,,,191.98807520000264,191.98807520000264,191.98807520000264,191.98807520000264,191.98807520000264,m,1,0.633645299996715,192.6540148999993,193.15457559999777,,,001,jack,2022-12-31_01h54.15.243,MentalRot,2022.2.1,60.05064671484583,
0,315,n,n,315,9,9,153,14,,,,,,,,,,,193.15457559999777,193.15457559999777,193.15457559999777,193.15457559999777,193.15457559999777,n,1,0.5305203999960213,193.70407160000468,194.20468090000213,,,001,jack,2022-12-31_01h54.15.243,MentalRot,2022.2.1,60.05064671484583,
0,270,y,m,270,9,10,154,13,,,,,,,,,,,194.20468090000213,194.20468090000213,194.20468090000213,194.20468090000213,194.20468090000213,m,1,0.4823398999942583,194.70321140000306,195.20445800000016,,,001,jack,2022-12-31_01h54.15.243,MentalRot,2022.2.1,60.05064671484583,
0,90,y,m,90,9,11,155,5,,,,,,,,,,,195.20445800000016,195.20445800000016,195.20445800000016,195.20445800000016,195.20445800000016,m,1,0.5375025999965146,195.77049760000227,196.2708111000029,,,001,jack,2022-12-31_01h54.15.243,MentalRot,2022.2.1,60.05064671484583,
0,90,n,n,90,9,12,156,4,,,,,,,,,,,196.2708111000029,196.2708111000029,196.2708111000029,196.2708111000029,196.2708111000029,n,1,0.543996899992635,196.83660080000118,197.33754210000188,,,001,jack,2022-12-31_01h54.15.243,MentalRot,2022.2.1,60.05064671484583,
0,180,n,n,180,9,13,157,8,,,,,,,,,,,197.33754210000188,197.33754210000188,197.33754210000188,197.33754210000188,197.33754210000188,n,1,0.6037635000029695,197.97002220000286,198.47108899999876,,,001,jack,2022-12-31_01h54.15.243,MentalRot,2022.2.1,60.05064671484583,
0,225,y,m,225,9,14,158,11,,,,,,,,,,,198.47108899999876,198.47108899999876,198.47108899999876,198.47108899999876,198.47108899999876,m,1,0.6224158999975771,199.12080450000212,199.62093150000146,,,001,jack,2022-12-31_01h54.15.243,MentalRot,2022.2.1,60.05064671484583,
0,225,n,n,225,9,15,159,10,,,,,,,,,,,199.62093150000146,199.62093150000146,199.62093150000146,199.62093150000146,199.62093150000146,m,0,0.7128977999964263,200.35341609999887,200.85317210000358,,,001,jack,2022-12-31_01h54.15.243,MentalRot,2022.2.1,60.05064671484583,
,,,,,,,,,,,,,,,,,,,,,,,,,,,,,200.85317210000358,200.85317210000358,,,,,,,
