current_span,grid_memory_instructions.thisRepN,grid_memory_instructions.thisTrialN,grid_memory_instructions.thisN,grid_memory_instructions.thisIndex,grid_memory_practice_trials.thisRepN,grid_memory_practice_trials.thisTrialN,grid_memory_practice_trials.thisN,grid_memory_practice_trials.thisIndex,grid_memory_practice.thisRepN,grid_memory_practice.thisTrialN,grid_memory_practice.thisN,grid_memory_practice.thisIndex,symmetry_instructions.thisRepN,symmetry_instructions.thisTrialN,symmetry_instructions.thisN,symmetry_instructions.thisIndex,symmetry_practice_trials.thisRepN,symmetry_practice_trials.thisTrialN,symmetry_practice_trials.thisN,symmetry_practice_trials.thisIndex,symspan_training_instructions.thisRepN,symspan_training_instructions.thisTrialN,symspan_training_instructions.thisN,symspan_training_instructions.thisIndex,symspan_training_trials.thisRepN,symspan_training_trials.thisTrialN,symspan_training_trials.thisN,symspan_training_trials.thisIndex,symspan_training_trial.thisRepN,symspan_training_trial.thisTrialN,symspan_training_trial.thisN,symspan_training_trial.thisIndex,symspan_testing_instructions.thisRepN,symspan_testing_instructions.thisTrialN,symspan_testing_instructions.thisN,symspan_testing_instructions.thisIndex,symspan_testing_trials.thisRepN,symspan_testing_trials.thisTrialN,symspan_testing_trials.thisN,symspan_testing_trials.thisIndex,symspan_testing_trial.thisRepN,symspan_testing_trial.thisTrialN,symspan_testing_trial.thisN,symspan_testing_trial.thisIndex,welcome_msg.started,welcome_next.started,welcome_resp.started,participant_code,instr_msg.started,previous.started,next.started,instr_resp.started,prompt_recall.started,A.started,B.started,C.started,D.started,E.started,F.started,G.started,H.started,I.started,J.started,K.started,L.started,M.started,N.started,O.started,P.started,clear_.started,blank.started,send.started,recall_response.started,correct_response,participant_response,full_credit_score,partial_credit_score,edit_distance_score,task_phase,symmetry_trials_correct,symmetry_total_trials,symmetry_percent_correct,recall_response.x,recall_response.y,recall_response.leftButton,recall_response.midButton,recall_response.rightButton,recall_response.time,recall_response.clicked_name,recall_feedback_prompt.started,symmetry_feedback_prompt.started,symmetry_feedback_performance.started,recall_feedback_prompt.stopped,symmetry_feedback_prompt.stopped,symmetry_feedback_performance.stopped,symmetry_prompt.started,continue_.started,symmetry_problem_next.started,symmetry_problem,symmetry_status,symmetry_corr,problem_rt,symmetry_answer_screen.started,yes.started,no.started,symmetry_response.started,answer_rt,symmetry_speed_error,symmetry_accuracy_error,symmetry_participant_corr,symmetry_participant_response,true_feedback.started,false_feedback.started,symmetry_corrective_feedback_msg.started,true_feedback.stopped,false_feedback.stopped,symmetry_corrective_feedback_msg.stopped,symmetry_errors,thanks_prompt.started,thanks_spacebar.started,thanks_resp.started,session_duration,final_full_credit_score,final_partial_credit_score,final_edit_distance_score,ID,Nome Completo,date,expName,psychopyVersion,frameRate,
,,,,,,,,,,,,,,,,,,,,,,,,,,,,,,,,,,,,,,,,,,,,,47.29205939988606,47.29205939988606,0.05151639995165169,350454372,,,,,,,,,,,,,,,,,,,,,,,,,,,,,,,,,,,,,,,,,,,,,,,,,,,,,,,,,,,,,,,,,,,,,,,,,,,,,,350454372,Relâmpago Marquin,2024-10-10_19h06.47.606,symspan,2022.2.1,60.97958833651357,
2,,,,,0,0,0,0,0,0,0,0,,,,,,,,,,,,,,,,,,,,,,,,,,,,,,,,,,,,350454372,50.908942400012165,50.908942400012165,50.908942400012165,0.012302199844270945,,,,,,,,,,,,,,,,,,,,,,,,,,,,,,,,,,,,,,,,,,,,,,,,,,,,,,,,,,,,,,,,,,,,,,,,,,350454372,Relâmpago Marquin,2024-10-10_19h06.47.606,symspan,2022.2.1,60.97958833651357,
2,,,,,0,0,0,0,1,0,1,0,,,,,,,,,,,,,,,,,,,,,,,,,,,,,,,,,,,,,,,,,,,,,,,,,,,,,,,,,,,,,,,,,,,,,,,,,,,,,,,,,,,,,,,,,,,,,,,,,,,,,,,,,,,,,,,,,,350454372,Relâmpago Marquin,2024-10-10_19h06.47.606,symspan,2022.2.1,60.97958833651357,
2,,,,,0,0,0,0,,,,,,,,,,,,,,,,,,,,,,,,,,,,,,,,,,,,,,,,,,,,,55.11378869996406,55.11378869996406,55.11378869996406,55.11378869996406,55.11378869996406,55.11378869996406,55.11378869996406,55.11378869996406,55.11378869996406,55.11378869996406,55.11378869996406,55.11378869996406,55.11378869996406,55.11378869996406,55.11378869996406,55.11378869996406,55.11378869996406,55.11378869996406,55.11378869996406,55.11378869996406,0.043043000157922506,DC,DC,2,2,2,grid_memory_practice_phase,0,0,0,"[0.28444444444444444, 0.16, 0.6177777777777778]","[0.39666666666666667, 0.41, -0.7966666666666666]","[1, 1, 1]","[0, 0, 0]","[0, 0, 0]","[0.4128643001895398, 0.7608931001741439, 1.341525400057435]","['D', 'C', 'send']",56.441876200027764,56.441876200027764,56.441876200027764,,,,,,,,,,,,,,,,,,,,,,,,,,,,,,,,,,350454372,Relâmpago Marquin,2024-10-10_19h06.47.606,symspan,2022.2.1,60.97958833651357,
2,,,,,1,0,1,0,0,0,0,0,,,,,,,,,,,,,,,,,,,,,,,,,,,,,,,,,,,,,,,,,,,,,,,,,,,,,,,,,,,,,,,,,,,,,,,,,,,,,,,,,,,,,,,,,,,,,,,,,,,,,,,,,,,,,,,,,,350454372,Relâmpago Marquin,2024-10-10_19h06.47.606,symspan,2022.2.1,60.97958833651357,
2,,,,,1,0,1,0,1,0,1,0,,,,,,,,,,,,,,,,,,,,,,,,,,,,,,,,,,,,,,,,,,,,,,,,,,,,,,,,,,,,,,,,,,,,,,,,,,,,,,,,,,,,,,,,,,,,,,,,,,,,,,,,,,,,,,,,,,350454372,Relâmpago Marquin,2024-10-10_19h06.47.606,symspan,2022.2.1,60.97958833651357,
2,,,,,1,0,1,0,,,,,,,,,,,,,,,,,,,,,,,,,,,,,,,,,,,,,,,,,,,,,62.47669119993225,62.47669119993225,62.47669119993225,62.47669119993225,62.47669119993225,62.47669119993225,62.47669119993225,62.47669119993225,62.47669119993225,62.47669119993225,62.47669119993225,62.47669119993225,62.47669119993225,62.47669119993225,62.47669119993225,62.47669119993225,62.47669119993225,62.47669119993225,62.47669119993225,62.47669119993225,0.03402159991674125,AD,AD,2,2,2,grid_memory_practice_phase,0,0,0,"[-0.2511111111111111, 0.33111111111111113, 0.66]","[0.45666666666666667, 0.3466666666666667, -0.7933333333333333]","[1, 1, 1]","[0, 0, 0]","[0, 0, 0]","[0.43444360001012683, 0.9034812001045793, 1.5316365999169648]","['A', 'D', 'send']",63.992159500019625,63.992159500019625,63.992159500019625,65.99280679994263,65.99280679994263,65.99280679994263,,,,,,,,,,,,,,,,,,,,,,,,,,,,,,,350454372,Relâmpago Marquin,2024-10-10_19h06.47.606,symspan,2022.2.1,60.97958833651357,
2,,,,,2,0,2,0,0,0,0,0,,,,,,,,,,,,,,,,,,,,,,,,,,,,,,,,,,,,,,,,,,,,,,,,,,,,,,,,,,,,,,,,,,,,,,,,,,,,,,,,,,,,,,,,,,,,,,,,,,,,,,,,,,,,,,,,,,350454372,Relâmpago Marquin,2024-10-10_19h06.47.606,symspan,2022.2.1,60.97958833651357,
2,,,,,2,0,2,0,1,0,1,0,,,,,,,,,,,,,,,,,,,,,,,,,,,,,,,,,,,,,,,,,,,,,,,,,,,,,,,,,,,,,,,,,,,,,,,,,,,,,,,,,,,,,,,,,,,,,,,,,,,,,,,,,,,,,,,,,,350454372,Relâmpago Marquin,2024-10-10_19h06.47.606,symspan,2022.2.1,60.97958833651357,
2,,,,,2,0,2,0,,,,,,,,,,,,,,,,,,,,,,,,,,,,,,,,,,,,,,,,,,,,,70.00966689991765,70.00966689991765,70.00966689991765,70.00966689991765,70.00966689991765,70.00966689991765,70.00966689991765,70.00966689991765,70.00966689991765,70.00966689991765,70.00966689991765,70.00966689991765,70.00966689991765,70.00966689991765,70.00966689991765,70.00966689991765,70.00966689991765,70.00966689991765,70.00966689991765,70.00966689991765,0.014932499965652823,EB,EB,2,2,2,grid_memory_practice_phase,0,0,0,"[-0.26666666666666666, -0.09777777777777778, 0.6111111111111112]","[0.08333333333333333, 0.3933333333333333, -0.7633333333333333]","[1, 1, 1]","[0, 0, 0]","[0, 0, 0]","[0.16626659990288317, 0.6519106000196189, 1.3824152001179755]","['E', 'B', 'send']",71.3922080998309,71.3922080998309,71.3922080998309,73.40775999985635,73.40775999985635,73.40775999985635,,,,,,,,,,,,,,,,,,,,,,,,,,,,,,,350454372,Relâmpago Marquin,2024-10-10_19h06.47.606,symspan,2022.2.1,60.97958833651357,
,,,,,,,,,,,,,,,,,0,0,0,0,,,,,,,,,,,,,,,,,,,,,,,,,,,,350454372,77.95814229990356,77.95814229990356,77.95814229990356,0.017340500140562654,,,,,,,,,,,,,,,,,,,,,,,,,,,,,,,,,,,,,,,,,,,,78.10907549993135,78.10907549993135,0.0026045998092740774,images/symm14.jpg,symmetric,yes,0.7510058998595923,78.85910889995284,78.85910889995284,78.85910889995284,4.569999873638153e-05,0.7313372001517564,0,0,1,yes,79.59204220003448,79.59204220003448,79.59204220003448,80.59197389986366,80.59197389986366,80.59197389986366,,,,,,,,,350454372,Relâmpago Marquin,2024-10-10_19h06.47.606,symspan,2022.2.1,60.97958833651357,
,,,,,,,,,,,,,,,,,1,0,1,0,,,,,,,,,,,,,,,,,,,,,,,,,,,,,,,,,,,,,,,,,,,,,,,,,,,,,,,,,,,,,,,,,,,,,,,,,,,,80.59197389986366,80.59197389986366,0.00044490001164376736,images/symm7.jpg,symmetric,yes,0.7839524999726564,81.37530149985105,81.37530149985105,81.37530149985105,3.060000017285347e-05,0.8348331998568028,0,0,1,yes,82.21009029983543,82.21009029983543,82.21009029983543,83.20914509985596,83.20914509985596,83.20914509985596,,,,,,,,,350454372,Relâmpago Marquin,2024-10-10_19h06.47.606,symspan,2022.2.1,60.97958833651357,
,,,,,,,,,,,,,,,,,2,0,2,0,,,,,,,,,,,,,,,,,,,,,,,,,,,,,,,,,,,,,,,,,,,,,,,,,,,,,,,,,,,,,,,,,,,,,,,,,,,,83.20914509985596,83.20914509985596,0.00016469997353851795,images/symm47.jpg,asymmetric,no,0.7169037000276148,83.92480259994045,83.92480259994045,83.92480259994045,3.5499921068549156e-05,0.9166578000877053,0,0,1,no,84.84173809993081,84.84173809993081,84.84173809993081,85.84247329994105,85.84247329994105,85.84247329994105,,,,,,,,,350454372,Relâmpago Marquin,2024-10-10_19h06.47.606,symspan,2022.2.1,60.97958833651357,
,,,,,,,,,,,,,,,,,3,0,3,0,,,,,,,,,,,,,,,,,,,,,,,,,,,,,,,,,,,,,,,,,,,,,,,,,,,,,,,,,,,,,,,,,,,,,,,,,,,,85.84247329994105,85.84247329994105,0.0014174999669194221,images/symm35.jpg,asymmetric,no,1.4175611999817193,87.25842510000803,87.25842510000803,87.25842510000803,4.449998959898949e-05,0.8326586000621319,0,0,1,no,88.09170769993216,88.09170769993216,88.09170769993216,89.09172469982877,89.09172469982877,89.09172469982877,,,,,,,,,350454372,Relâmpago Marquin,2024-10-10_19h06.47.606,symspan,2022.2.1,60.97958833651357,
,,,,,,,,,,,,,,,,,4,0,4,0,,,,,,,,,,,,,,,,,,,,,,,,,,,,,,,,,,,,,,,,,,,,,,,,,,,,,,,,,,,,,,,,,,,,,,,,,,,,89.09172469982877,89.09172469982877,0.0023501000832766294,images/symm10.jpg,symmetric,yes,0.6331342998892069,89.72484749997966,89.72484749997966,89.72484749997966,3.79001721739769e-05,0.6347759000491351,0,0,1,yes,90.35826739994809,90.35826739994809,90.35826739994809,91.35783779993653,91.35783779993653,91.35783779993653,,,,,,,,,350454372,Relâmpago Marquin,2024-10-10_19h06.47.606,symspan,2022.2.1,60.97958833651357,
,,,,,,,,,,,,,,,,,5,0,5,0,,,,,,,,,,,,,,,,,,,,,,,,,,,,,,,,,,,,,,,,,,,,,,,,,,,,,,,,,,,,,,,,,,,,,,,,,,,,91.35783779993653,91.35783779993653,0.0006375000812113285,images/symm6.jpg,symmetric,yes,0.7675884999334812,92.12491639982909,92.12491639982909,92.12491639982909,3.620004281401634e-05,0.5164874000474811,0,0,1,yes,92.64232290000655,92.64232290000655,92.64232290000655,,,,,,,,,,,,350454372,Relâmpago Marquin,2024-10-10_19h06.47.606,symspan,2022.2.1,60.97958833651357,
,,,,,,,,,,,,,,,,,6,0,6,0,,,,,,,,,,,,,,,,,,,,,,,,,,,,,,,,,,,,,,,,,,,,,,,,,,,,,,,,,,,,,,,,,,,,,,,,,,,,93.6580858998932,93.6580858998932,0.015856500016525388,images/symm27.jpg,asymmetric,no,0.5346717000938952,94.19172829994932,94.19172829994932,94.19172829994932,3.360002301633358e-05,0.5519148001912981,0,1,0,yes,94.74129879986867,94.74129879986867,94.74129879986867,95.74112170003355,95.74112170003355,95.74112170003355,,,,,,,,,350454372,Relâmpago Marquin,2024-10-10_19h06.47.606,symspan,2022.2.1,60.97958833651357,
,,,,,,,,,,,,,,,,,7,0,7,0,,,,,,,,,,,,,,,,,,,,,,,,,,,,,,,,,,,,,,,,,,,,,,,,,,,,,,,,,,,,,,,,,,,,,,,,,,,,95.74112170003355,95.74112170003355,0.013003399828448892,images/symm38.jpg,asymmetric,no,0.7344035001005977,96.4742840998806,96.4742840998806,96.4742840998806,2.759997732937336e-05,0.4988750999327749,0,0,1,no,96.97386609995738,96.97386609995738,96.97386609995738,97.97450100001879,97.97450100001879,97.97450100001879,,,,,,,,,350454372,Relâmpago Marquin,2024-10-10_19h06.47.606,symspan,2022.2.1,60.97958833651357,
,,,,,,,,,,,,,,,,,8,0,8,0,,,,,,,,,,,,,,,,,,,,,,,,,,,,,,,,,,,,,,,,,,,,,,,,,,,,,,,,,,,,,,,,,,,,,,,,,,,,97.97450100001879,97.97450100001879,0.0036244001239538193,images/symm28.jpg,asymmetric,no,0.6336040000896901,98.60784840001725,98.60784840001725,98.60784840001725,2.9700109735131264e-05,0.5011533000506461,0,0,1,no,99.10807419987395,99.10807419987395,99.10807419987395,100.10794269992039,100.10794269992039,100.10794269992039,,,,,,,,,350454372,Relâmpago Marquin,2024-10-10_19h06.47.606,symspan,2022.2.1,60.97958833651357,
,,,,,,,,,,,,,,,,,9,0,9,0,,,,,,,,,,,,,,,,,,,,,,,,,,,,,,,,,,,,,,,,,,,,,,,,,,,,,,,,,,,,,,,,,,,,,,,,,,,,100.10794269992039,100.10794269992039,0.001112799858674407,images/symm32.jpg,asymmetric,no,4.717092000180855,104.82556169992313,104.82556169992313,104.82556169992313,4.359986633062363e-05,0.7326352000236511,0,0,1,no,105.55760089983232,105.55760089983232,105.55760089983232,106.55752049991861,106.55752049991861,106.55752049991861,,,,,,,,,350454372,Relâmpago Marquin,2024-10-10_19h06.47.606,symspan,2022.2.1,60.97958833651357,
,,,,,,,,,,,,,,,,,10,0,10,0,,,,,,,,,,,,,,,,,,,,,,,,,,,,,,,,,,,,,,,,,,,,,,,,,,,,,,,,,,,,,,,,,,,,,,,,,,,,106.55752049991861,106.55752049991861,0.0018915999680757523,images/symm33.jpg,asymmetric,no,1.3330278999637812,107.89150449982844,107.89150449982844,107.89150449982844,5.389982834458351e-05,0.5163138001225889,0,0,1,no,108.40698749991134,108.40698749991134,108.40698749991134,109.40713159996085,109.40713159996085,109.40713159996085,,,,,,,,,350454372,Relâmpago Marquin,2024-10-10_19h06.47.606,symspan,2022.2.1,60.97958833651357,
,,,,,,,,,,,,,,,,,11,0,11,0,,,,,,,,,,,,,,,,,,,,,,,,,,,,,,,,,,,,,,,,,,,,,,,,,,,,,,,,,,,,,,,,,,,,,,,,,,,,109.40713159996085,109.40713159996085,0.0030308000277727842,images/symm45.jpg,asymmetric,no,0.6184303001500666,110.02568249986507,110.02568249986507,110.02568249986507,4.210020415484905e-05,0.4647421999834478,0,0,1,no,110.49061429989524,110.49061429989524,110.49061429989524,111.4902794000227,111.4902794000227,111.4902794000227,,,,,,,,,350454372,Relâmpago Marquin,2024-10-10_19h06.47.606,symspan,2022.2.1,60.97958833651357,
,,,,,,,,,,,,,,,,,12,0,12,0,,,,,,,,,,,,,,,,,,,,,,,,,,,,,,,,,,,,,,,,,,,,,,,,,,,,,,,,,,,,,,,,,,,,,,,,,,,,111.4902794000227,111.4902794000227,0.0012074001133441925,images/symm45.jpg,asymmetric,no,0.34950789995491505,111.84010859997943,111.84010859997943,111.84010859997943,4.409998655319214e-05,0.7000865999143571,0,0,1,no,112.54045660002157,112.54045660002157,112.54045660002157,113.53976159985177,113.53976159985177,113.53976159985177,,,,,,,,,350454372,Relâmpago Marquin,2024-10-10_19h06.47.606,symspan,2022.2.1,60.97958833651357,
,,,,,,,,,,,,,,,,,13,0,13,0,,,,,,,,,,,,,,,,,,,,,,,,,,,,,,,,,,,,,,,,,,,,,,,,,,,,,,,,,,,,,,,,,,,,,,,,,,,,113.53976159985177,113.53976159985177,0.0007664000149816275,images/symm17.jpg,symmetric,yes,1.400964300148189,114.94042789982632,114.94042789982632,114.94042789982632,3.9800070226192474e-05,0.6166778998449445,0,0,1,yes,115.5572832999751,115.5572832999751,115.5572832999751,116.5573926998768,116.5573926998768,116.5573926998768,,,,,,,,,350454372,Relâmpago Marquin,2024-10-10_19h06.47.606,symspan,2022.2.1,60.97958833651357,
,,,,,,,,,,,,,,,,,14,0,14,0,,,,,,,,,,,,,,,,,,,,,,,,,,,,,,,,,,,,,,,,,,,,,,,,,,,,,,,,,,,,,,,,,,,,,,,,,,,,116.5573926998768,116.5573926998768,0.0009577998425811529,images/symm48.jpg,asymmetric,no,1.618173399940133,118.17442569998093,118.17442569998093,118.17442569998093,3.3700140193104744e-05,0.6998302000574768,0,1,0,yes,118.87392429984175,118.87392429984175,118.87392429984175,119.90607109991834,119.90607109991834,119.90607109991834,,,,,,,,,350454372,Relâmpago Marquin,2024-10-10_19h06.47.606,symspan,2022.2.1,60.97958833651357,
2,,,,,,,,,,,,,,,,,,,,,,,,,0,0,0,0,0,0,0,0,,,,,,,,,,,,,,,,350454372,120.73886639997363,120.73886639997363,120.73886639997363,0.031942599918693304,,,,,,,,,,,,,,,,,,,,,,,,,,,,,,,,,,,,,,,,,,,,120.8396739999298,120.8396739999298,0.008471200009807944,images/symm13.jpg,symmetric,yes,1.445013799937442,122.29083309997804,122.29083309997804,122.29083309997804,4.20999713242054e-05,1.0988260000012815,0,0,1,yes,,,,,,,,,,,,,,,350454372,Relâmpago Marquin,2024-10-10_19h06.47.606,symspan,2022.2.1,60.97958833651357,
2,,,,,,,,,,,,,,,,,,,,,,,,,0,0,0,0,1,0,1,0,,,,,,,,,,,,,,,,,,,,,,,,,,,,,,,,,,,,,,,,,,,,,,,,,,,,,,,,,,,,,,,,125.3903814998921,125.3903814998921,0.0012737999204546213,images/symm28.jpg,asymmetric,no,3.9821562999859452,,,,,3.520003519952297e-05,1,0,0,,,,,,,,,,,,,,,,350454372,Relâmpago Marquin,2024-10-10_19h06.47.606,symspan,2022.2.1,60.97958833651357,
2,,,,,,,,,,,,,,,,,,,,,,,,,0,0,0,0,,,,,,,,,,,,,,,,,,,,,,,,,131.40810669981875,131.40810669981875,131.40810669981875,131.40810669981875,131.40810669981875,131.40810669981875,131.40810669981875,131.40810669981875,131.40810669981875,131.40810669981875,131.40810669981875,131.40810669981875,131.40810669981875,131.40810669981875,131.40810669981875,131.40810669981875,131.40810669981875,131.40810669981875,131.40810669981875,131.40810669981875,0.038621299900114536,OM,K,0,0,0,symspan_training_trials,14,17,82.35294117647058,"[0.5688888888888889, 0.10666666666666667, 0.46444444444444444]","[-0.81, -0.10333333333333333, -0.7533333333333333]","[1, 1, 1]","[0, 0, 0]","[0, 0, 0]","[4.248134099878371, 4.749324700096622, 5.2178396000526845]","['send', 'K', 'send']",136.68765179999173,136.68765179999173,136.68765179999173,,,,,,,,,,,,,,,,,,,,,,,,,,1,,,,,,,,350454372,Relâmpago Marquin,2024-10-10_19h06.47.606,symspan,2022.2.1,60.97958833651357,
2,,,,,,,,,,,,,,,,,,,,,,,,,1,0,1,0,0,0,0,0,,,,,,,,,,,,,,,,,,,,,,,,,,,,,,,,,,,,,,,,,,,,,,,,,,,,,,,,,,,,,,,,138.63861599983647,138.63861599983647,0.011923500103875995,images/symm43.jpg,asymmetric,no,1.1476360000669956,139.79119029990397,139.79119029990397,139.79119029990397,2.6300083845853806e-05,1.1320942000020295,0,0,1,no,,,,,,,,,,,,,,,350454372,Relâmpago Marquin,2024-10-10_19h06.47.606,symspan,2022.2.1,60.97958833651357,
2,,,,,,,,,,,,,,,,,,,,,,,,,1,0,1,0,1,0,1,0,,,,,,,,,,,,,,,,,,,,,,,,,,,,,,,,,,,,,,,,,,,,,,,,,,,,,,,,,,,,,,,,142.92625349992886,142.92625349992886,0.005033800145611167,images/symm25.jpg,asymmetric,no,3.982777199940756,,,,,3.4899916499853134e-05,1,0,0,,,,,,,,,,,,,,,,350454372,Relâmpago Marquin,2024-10-10_19h06.47.606,symspan,2022.2.1,60.97958833651357,
2,,,,,,,,,,,,,,,,,,,,,,,,,1,0,1,0,,,,,,,,,,,,,,,,,,,,,,,,,148.9404465998523,148.9404465998523,148.9404465998523,148.9404465998523,148.9404465998523,148.9404465998523,148.9404465998523,148.9404465998523,148.9404465998523,148.9404465998523,148.9404465998523,148.9404465998523,148.9404465998523,148.9404465998523,148.9404465998523,148.9404465998523,148.9404465998523,148.9404465998523,148.9404465998523,148.9404465998523,0.019831900019198656,ED,DGJPOFEI,0,0,0,symspan_training_trials,15,19,78.94736842105263,"[0.29555555555555557, 0.022222222222222223, -0.19111111111111112, -0.1711111111111111, 0.33111111111111113, 0.18222222222222223, -0.02, -0.19111111111111112, -0.2733333333333333, -0.2822222222222222, -0.28888888888888886, 0.6066666666666667]","[0.49333333333333335, 0.03, -0.05333333333333334, -0.21333333333333335, -0.4266666666666667, -0.38, 0.04666666666666667, 0.23333333333333334, 0.05333333333333334, -0.03666666666666667, -0.09666666666666666, -0.79]","[1, 1, 1, 1, 1, 1, 1, 1, 1, 1, 1, 1]","[0, 0, 0, 0, 0, 0, 0, 0, 0, 0, 0, 0]","[0, 0, 0, 0, 0, 0, 0, 0, 0, 0, 0, 0]","[0.583702800096944, 0.8994156999979168, 1.1173159999307245, 1.331668599974364, 1.8515888000838459, 2.131804399890825, 2.36789090000093, 2.5652449999470264, 2.935297799995169, 3.0681533999741077, 3.2163809000048786, 3.849650999996811]","['D', 'G', 'J', 'J', 'P', 'O', 'F', 'F', 'E', 'I', 'I', 'send']",152.79027619981207,152.79027619981207,152.79027619981207,,,,,,,,,,,,,,,,,,,,,,,,,,1,,,,,,,,350454372,Relâmpago Marquin,2024-10-10_19h06.47.606,symspan,2022.2.1,60.97958833651357,
2,,,,,,,,,,,,,,,,,,,,,,,,,2,0,2,0,0,0,0,0,,,,,,,,,,,,,,,,,,,,,,,,,,,,,,,,,,,,,,,,,,,,,,,,,,,,,,,,,,,,,,,,154.7912145999726,154.7912145999726,0.012767600128427148,images/symm24.jpg,symmetric,yes,0.8511535001453012,155.64005439984612,155.64005439984612,155.64005439984612,2.7300091460347176e-05,0.5821439998690039,0,0,1,yes,,,,,,,,,,,,,,,350454372,Relâmpago Marquin,2024-10-10_19h06.47.606,symspan,2022.2.1,60.97958833651357,
2,,,,,,,,,,,,,,,,,,,,,,,,,2,0,2,0,1,0,1,0,,,,,,,,,,,,,,,,,,,,,,,,,,,,,,,,,,,,,,,,,,,,,,,,,,,,,,,,,,,,,,,,158.24053129996173,158.24053129996173,0.018979299813508987,images/symm34.jpg,asymmetric,no,0.6484765000641346,158.8912155998405,158.8912155998405,158.8912155998405,2.7899863198399544e-05,0.6002922998741269,0,0,1,no,,,,,,,,,,,,,,,350454372,Relâmpago Marquin,2024-10-10_19h06.47.606,symspan,2022.2.1,60.97958833651357,
2,,,,,,,,,,,,,,,,,,,,,,,,,2,0,2,0,,,,,,,,,,,,,,,,,,,,,,,,,161.52615159982815,161.52615159982815,161.52615159982815,161.52615159982815,161.52615159982815,161.52615159982815,161.52615159982815,161.52615159982815,161.52615159982815,161.52615159982815,161.52615159982815,161.52615159982815,161.52615159982815,161.52615159982815,161.52615159982815,161.52615159982815,161.52615159982815,161.52615159982815,161.52615159982815,161.52615159982815,0.024546900065615773,CI,JH,0,0,0,symspan_training_trials,17,21,80.95238095238095,"[-0.013333333333333334, 0.31333333333333335, 0.5911111111111111]","[-0.15666666666666668, 0.24, -0.7866666666666666]","[1, 1, 1]","[0, 0, 0]","[0, 0, 0]","[0.41269150003790855, 0.8308585998602211, 1.4631574999075383]","['J', 'H', 'send']",162.9903913999442,162.9903913999442,162.9903913999442,,,,,,,,,,,,,,,,,,,,,,,,,,0,,,,,,,,350454372,Relâmpago Marquin,2024-10-10_19h06.47.606,symspan,2022.2.1,60.97958833651357,
4,,,,,,,,,,,,,,,,,,,,,,,,,,,,,,,,,,,,,0,0,0,1,0,0,0,0,,,,350454372,171.39072959986515,171.39072959986515,171.39072959986515,0.02206390001811087,,,,,,,,,,,,,,,,,,,,,,,,,,,,,,,,,,,,,,,,,,,,172.32520570000634,172.32520570000634,0.007676899898797274,images/symm30.jpg,asymmetric,no,1.928076900076121,174.25795999984257,174.25795999984257,174.25795999984257,2.7300091460347176e-05,0.584691499825567,0,0,1,no,,,,,,,,,,,,,,,350454372,Relâmpago Marquin,2024-10-10_19h06.47.606,symspan,2022.2.1,60.97958833651357,
4,,,,,,,,,,,,,,,,,,,,,,,,,,,,,,,,,,,,,0,0,0,1,1,0,1,0,,,,,,,,,,,,,,,,,,,,,,,,,,,,,,,,,,,,,,,,,,,,,,,,,,,,176.83897509984672,176.83897509984672,0.002015699865296483,images/symm21.jpg,symmetric,yes,1.100217100000009,177.93862449983135,177.93862449983135,177.93862449983135,3.169989213347435e-05,0.5804280999582261,0,0,1,yes,,,,,,,,,,,,,,,350454372,Relâmpago Marquin,2024-10-10_19h06.47.606,symspan,2022.2.1,60.97958833651357,
4,,,,,,,,,,,,,,,,,,,,,,,,,,,,,,,,,,,,,0,0,0,1,2,0,2,0,,,,,,,,,,,,,,,,,,,,,,,,,,,,,,,,,,,,,,,,,,,,,,,,,,,,180.5385198998265,180.5385198998265,0.018753600073978305,images/symm31.jpg,asymmetric,no,1.6676053998526186,182.20505649992265,182.20505649992265,182.20505649992265,2.8999987989664078e-05,0.6830242001451552,0,0,1,no,,,,,,,,,,,,,,,350454372,Relâmpago Marquin,2024-10-10_19h06.47.606,symspan,2022.2.1,60.97958833651357,
4,,,,,,,,,,,,,,,,,,,,,,,,,,,,,,,,,,,,,0,0,0,1,3,0,3,0,,,,,,,,,,,,,,,,,,,,,,,,,,,,,,,,,,,,,,,,,,,,,,,,,,,,184.90494919987395,184.90494919987395,0.020711799850687385,images/symm47.jpg,asymmetric,no,0.7968313999008387,185.70503519987687,185.70503519987687,185.70503519987687,6.0999998822808266e-05,0.5517651999834925,0,0,1,no,,,,,,,,,,,,,,,350454372,Relâmpago Marquin,2024-10-10_19h06.47.606,symspan,2022.2.1,60.97958833651357,
4,,,,,,,,,,,,,,,,,,,,,,,,,,,,,,,,,,,,,0,0,0,1,,,,,,,,,,,,,188.30597809981555,188.30597809981555,188.30597809981555,188.30597809981555,188.30597809981555,188.30597809981555,188.30597809981555,188.30597809981555,188.30597809981555,188.30597809981555,188.30597809981555,188.30597809981555,188.30597809981555,188.30597809981555,188.30597809981555,188.30597809981555,188.30597809981555,188.30597809981555,188.30597809981555,188.30597809981555,0.049332500202581286,CNOL,CNOL,4,4,4,symspan_testing_trials,4,4,100.0,"[0.04, -0.06888888888888889, 0.06888888888888889, 0.2733333333333333, 0.5466666666666666]","[0.4766666666666667, -0.4533333333333333, -0.4766666666666667, -0.24, -0.7666666666666667]","[1, 1, 1, 1, 1]","[0, 0, 0, 0, 0]","[0, 0, 0, 0, 0]","[1.0093666999600828, 1.5115751000121236, 1.8255519000813365, 2.1569924000650644, 2.839843000052497]","['C', 'N', 'O', 'L', 'send']",191.17126909992658,191.17126909992658,191.17126909992658,,,,,,,,,,,,,,,,,,,,,,,,,,0,,,,,,,,350454372,Relâmpago Marquin,2024-10-10_19h06.47.606,symspan,2022.2.1,60.97958833651357,
3,,,,,,,,,,,,,,,,,,,,,,,,,,,,,,,,,,,,,0,1,1,0,0,0,0,0,,,,,,,,,,,,,,,,,,,,,,,,,,,,,,,,,,,,,,,,,,,,,,,,,,,,193.15352589986287,193.15352589986287,0.01060390006750822,images/symm11.jpg,symmetric,yes,1.0656065999064595,194.22021119995043,194.22021119995043,194.22021119995043,3.560003824532032e-05,0.5507485000416636,0,0,1,yes,,,,,,,,,,,,,,,350454372,Relâmpago Marquin,2024-10-10_19h06.47.606,symspan,2022.2.1,60.97958833651357,
3,,,,,,,,,,,,,,,,,,,,,,,,,,,,,,,,,,,,,0,1,1,0,1,0,1,0,,,,,,,,,,,,,,,,,,,,,,,,,,,,,,,,,,,,,,,,,,,,,,,,,,,,196.78967879991978,196.78967879991978,0.018226899905130267,images/symm46.jpg,asymmetric,no,0.9651049000676721,197.75618149992079,197.75618149992079,197.75618149992079,2.8900103643536568e-05,0.5162112000398338,0,0,1,no,,,,,,,,,,,,,,,350454372,Relâmpago Marquin,2024-10-10_19h06.47.606,symspan,2022.2.1,60.97958833651357,
3,,,,,,,,,,,,,,,,,,,,,,,,,,,,,,,,,,,,,0,1,1,0,2,0,2,0,,,,,,,,,,,,,,,,,,,,,,,,,,,,,,,,,,,,,,,,,,,,,,,,,,,,200.29101979988627,200.29101979988627,0.01789419981651008,images/symm10.jpg,symmetric,yes,0.7831281998660415,201.07064319984056,201.07064319984056,201.07064319984056,3.469991497695446e-05,0.48338929982855916,0,0,1,yes,,,,,,,,,,,,,,,350454372,Relâmpago Marquin,2024-10-10_19h06.47.606,symspan,2022.2.1,60.97958833651357,
3,,,,,,,,,,,,,,,,,,,,,,,,,,,,,,,,,,,,,0,1,1,0,,,,,,,,,,,,,203.6050016998779,203.6050016998779,203.6050016998779,203.6050016998779,203.6050016998779,203.6050016998779,203.6050016998779,203.6050016998779,203.6050016998779,203.6050016998779,203.6050016998779,203.6050016998779,203.6050016998779,203.6050016998779,203.6050016998779,203.6050016998779,203.6050016998779,203.6050016998779,203.6050016998779,203.6050016998779,0.041105200070887804,LBF,LBF,3,3,3,symspan_testing_trials,7,7,100.0,"[0.30444444444444446, -0.08888888888888889, -0.06222222222222222, 0.5622222222222222]","[-0.19333333333333333, 0.4066666666666667, 0.04, -0.7633333333333333]","[1, 1, 1, 1]","[0, 0, 0, 0]","[0, 0, 0, 0]","[0.8634649999439716, 1.3298007999546826, 1.6630653000902385, 2.361552800051868]","['L', 'B', 'F', 'send']",205.96978269983083,205.96978269983083,205.96978269983083,,,,,,,,,,,,,,,,,,,,,,,,,,0,,,,,,,,350454372,Relâmpago Marquin,2024-10-10_19h06.47.606,symspan,2022.2.1,60.97958833651357,
5,,,,,,,,,,,,,,,,,,,,,,,,,,,,,,,,,,,,,0,2,2,2,0,0,0,0,,,,,,,,,,,,,,,,,,,,,,,,,,,,,,,,,,,,,,,,,,,,,,,,,,,,207.970226299949,207.970226299949,0.015643100021407008,images/symm18.jpg,symmetric,yes,3.9490205999463797,211.91804519994184,211.91804519994184,211.91804519994184,2.8899870812892914e-05,0.0330400001257658,1,0,0,,,,,,,,,,,,,,,,350454372,Relâmpago Marquin,2024-10-10_19h06.47.606,symspan,2022.2.1,60.97958833651357,
5,,,,,,,,,,,,,,,,,,,,,,,,,,,,,,,,,,,,,0,2,2,2,1,0,1,0,,,,,,,,,,,,,,,,,,,,,,,,,,,,,,,,,,,,,,,,,,,,,,,,,,,,213.95565130002797,213.95565130002797,0.0021955000702291727,images/symm24.jpg,symmetric,yes,1.0838081000838429,215.0377134999726,215.0377134999726,215.0377134999726,2.7799978852272034e-05,0.8823692998848855,0,1,0,no,,,,,,,,,,,,,,,350454372,Relâmpago Marquin,2024-10-10_19h06.47.606,symspan,2022.2.1,60.97958833651357,
5,,,,,,,,,,,,,,,,,,,,,,,,,,,,,,,,,,,,,0,2,2,2,2,0,2,0,,,,,,,,,,,,,,,,,,,,,,,,,,,,,,,,,,,,,,,,,,,,,,,,,,,,217.91937859985046,217.91937859985046,0.0022603999823331833,images/symm8.jpg,symmetric,yes,1.4339143999386579,219.3554583999794,219.3554583999794,219.3554583999794,4.000007174909115e-05,0.48355569993145764,0,0,1,yes,,,,,,,,,,,,,,,350454372,Relâmpago Marquin,2024-10-10_19h06.47.606,symspan,2022.2.1,60.97958833651357,
5,,,,,,,,,,,,,,,,,,,,,,,,,,,,,,,,,,,,,0,2,2,2,3,0,3,0,,,,,,,,,,,,,,,,,,,,,,,,,,,,,,,,,,,,,,,,,,,,,,,,,,,,221.83770449995063,221.83770449995063,0.0015261000953614712,images/symm12.jpg,symmetric,yes,1.132022200152278,222.97104380000383,222.97104380000383,222.97104380000383,3.0800001695752144e-05,0.5167638000566512,0,0,1,yes,,,,,,,,,,,,,,,350454372,Relâmpago Marquin,2024-10-10_19h06.47.606,symspan,2022.2.1,60.97958833651357,
5,,,,,,,,,,,,,,,,,,,,,,,,,,,,,,,,,,,,,0,2,2,2,4,0,4,0,,,,,,,,,,,,,,,,,,,,,,,,,,,,,,,,,,,,,,,,,,,,,,,,,,,,225.48704629996791,225.48704629996791,0.0012183000799268484,images/symm4.jpg,symmetric,yes,1.0833613998256624,226.5708130998537,226.5708130998537,226.5708130998537,2.9999995604157448e-05,0.4663877000566572,0,0,1,yes,,,,,,,,,,,,,,,350454372,Relâmpago Marquin,2024-10-10_19h06.47.606,symspan,2022.2.1,60.97958833651357,
5,,,,,,,,,,,,,,,,,,,,,,,,,,,,,,,,,,,,,0,2,2,2,,,,,,,,,,,,,229.0722202998586,229.0722202998586,229.0722202998586,229.0722202998586,229.0722202998586,229.0722202998586,229.0722202998586,229.0722202998586,229.0722202998586,229.0722202998586,229.0722202998586,229.0722202998586,229.0722202998586,229.0722202998586,229.0722202998586,229.0722202998586,229.0722202998586,229.0722202998586,229.0722202998586,229.0722202998586,0.02129080006852746,CLJHA,CLJHA,5,5,5,symspan_testing_trials,10,12,83.33333333333334,"[0.1688888888888889, 0.28444444444444444, -0.08444444444444445, 0.23777777777777778, -0.31555555555555553, 0.6355555555555555]","[0.4766666666666667, -0.18333333333333332, -0.10333333333333333, 0.13, 0.53, -0.78]","[1, 1, 1, 1, 1, 1]","[0, 0, 0, 0, 0, 0]","[0, 0, 0, 0, 0, 0]","[0.43291360000148416, 0.966528199845925, 1.3826313999015838, 1.8503457999322563, 2.281163099920377, 2.914941000053659]","['C', 'L', 'J', 'H', 'A', 'send']",232.0030728999991,232.0030728999991,232.0030728999991,,,,,,,,,,,,,,,,,,,,,,,,,,2,,,,,,,,350454372,Relâmpago Marquin,2024-10-10_19h06.47.606,symspan,2022.2.1,60.97958833651357,
4,,,,,,,,,,,,,,,,,,,,,,,,,,,,,,,,,,,,,1,0,3,1,0,0,0,0,,,,,,,,,,,,,,,,,,,,,,,,,,,,,,,,,,,,,,,,,,,,,,,,,,,,233.9843252999708,233.9843252999708,0.013585800072178245,images/symm2.jpg,symmetric,yes,1.0136180000845343,235.00448879995383,235.00448879995383,235.00448879995383,5.16998115926981e-05,0.635887699900195,0,0,1,yes,,,,,,,,,,,,,,,350454372,Relâmpago Marquin,2024-10-10_19h06.47.606,symspan,2022.2.1,60.97958833651357,
4,,,,,,,,,,,,,,,,,,,,,,,,,,,,,,,,,,,,,1,0,3,1,1,0,1,0,,,,,,,,,,,,,,,,,,,,,,,,,,,,,,,,,,,,,,,,,,,,,,,,,,,,237.63699539983645,237.63699539983645,0.0014315000735223293,images/symm29.jpg,asymmetric,no,1.6505187000147998,239.2867270000279,239.2867270000279,239.2867270000279,4.269997589290142e-05,0.750716800102964,0,0,1,no,,,,,,,,,,,,,,,350454372,Relâmpago Marquin,2024-10-10_19h06.47.606,symspan,2022.2.1,60.97958833651357,
4,,,,,,,,,,,,,,,,,,,,,,,,,,,,,,,,,,,,,1,0,3,1,2,0,2,0,,,,,,,,,,,,,,,,,,,,,,,,,,,,,,,,,,,,,,,,,,,,,,,,,,,,242.03713719989173,242.03713719989173,0.003965900046750903,images/symm40.jpg,asymmetric,no,3.9936249000020325,,,,,3.309990279376507e-05,1,0,0,,,,,,,,,,,,,,,,350454372,Relâmpago Marquin,2024-10-10_19h06.47.606,symspan,2022.2.1,60.97958833651357,
4,,,,,,,,,,,,,,,,,,,,,,,,,,,,,,,,,,,,,1,0,3,1,3,0,3,0,,,,,,,,,,,,,,,,,,,,,,,,,,,,,,,,,,,,,,,,,,,,,,,,,,,,248.0371669998858,248.0371669998858,0.002620900049805641,images/symm14.jpg,symmetric,yes,2.7002912999596447,250.7369625000283,250.7369625000283,250.7369625000283,8.569983765482903e-05,0.5197483999654651,0,0,1,yes,,,,,,,,,,,,,,,350454372,Relâmpago Marquin,2024-10-10_19h06.47.606,symspan,2022.2.1,60.97958833651357,
4,,,,,,,,,,,,,,,,,,,,,,,,,,,,,,,,,,,,,1,0,3,1,,,,,,,,,,,,,253.28555759997107,253.28555759997107,253.28555759997107,253.28555759997107,253.28555759997107,253.28555759997107,253.28555759997107,253.28555759997107,253.28555759997107,253.28555759997107,253.28555759997107,253.28555759997107,253.28555759997107,253.28555759997107,253.28555759997107,253.28555759997107,253.28555759997107,253.28555759997107,253.28555759997107,253.28555759997107,0.024429500102996826,MCIB,BLN,0,0,0,symspan_testing_trials,13,16,81.25,"[-0.08888888888888889, 0.21777777777777776, -0.18222222222222223, 0.5711111111111111]","[0.38333333333333336, -0.24333333333333335, -0.32666666666666666, -0.8233333333333334]","[1, 1, 1, 1]","[0, 0, 0, 0]","[0, 0, 0, 0]","[0.34938659984618425, 0.7488921999465674, 1.0758631997741759, 1.7277083999942988]","['B', 'L', 'N', 'send']",255.01805979991332,255.01805979991332,255.01805979991332,,,,,,,,,,,,,,,,,,,,,,,,,,1,,,,,,,,350454372,Relâmpago Marquin,2024-10-10_19h06.47.606,symspan,2022.2.1,60.97958833651357,
3,,,,,,,,,,,,,,,,,,,,,,,,,,,,,,,,,,,,,1,1,4,0,0,0,0,0,,,,,,,,,,,,,,,,,,,,,,,,,,,,,,,,,,,,,,,,,,,,,,,,,,,,257.01868249988183,257.01868249988183,0.013176100095734,images/symm34.jpg,asymmetric,no,3.9824027998838574,,,,,7.79998954385519e-05,1,0,0,,,,,,,,,,,,,,,,350454372,Relâmpago Marquin,2024-10-10_19h06.47.606,symspan,2022.2.1,60.97958833651357,
3,,,,,,,,,,,,,,,,,,,,,,,,,,,,,,,,,,,,,1,1,4,0,1,0,1,0,,,,,,,,,,,,,,,,,,,,,,,,,,,,,,,,,,,,,,,,,,,,,,,,,,,,263.0023576999083,263.0023576999083,0.0024587998632341623,images/symm23.jpg,symmetric,yes,0.8160601002164185,263.81819619983435,263.81819619983435,263.81819619983435,2.6499852538108826e-05,0.6336046999786049,0,0,1,yes,,,,,,,,,,,,,,,350454372,Relâmpago Marquin,2024-10-10_19h06.47.606,symspan,2022.2.1,60.97958833651357,
3,,,,,,,,,,,,,,,,,,,,,,,,,,,,,,,,,,,,,1,1,4,0,2,0,2,0,,,,,,,,,,,,,,,,,,,,,,,,,,,,,,,,,,,,,,,,,,,,,,,,,,,,266.45185529999435,266.45185529999435,0.0023926999419927597,images/symm44.jpg,asymmetric,no,0.6665537999942899,267.11824889993295,267.11824889993295,267.11824889993295,2.650008536875248e-05,0.8825505999848247,0,0,1,no,,,,,,,,,,,,,,,350454372,Relâmpago Marquin,2024-10-10_19h06.47.606,symspan,2022.2.1,60.97958833651357,
3,,,,,,,,,,,,,,,,,,,,,,,,,,,,,,,,,,,,,1,1,4,0,,,,,,,,,,,,,270.0372933000326,270.0372933000326,270.0372933000326,270.0372933000326,270.0372933000326,270.0372933000326,270.0372933000326,270.0372933000326,270.0372933000326,270.0372933000326,270.0372933000326,270.0372933000326,270.0372933000326,270.0372933000326,270.0372933000326,270.0372933000326,270.0372933000326,270.0372933000326,270.0372933000326,270.0372933000326,0.022329499945044518,AKE,P,0,0,0,symspan_testing_trials,15,19,78.94736842105263,"[0.3, -0.5355555555555556, 0.68, 0.6555555555555556, 0.6555555555555556, 0.3088888888888889, 0.5844444444444444]","[-0.28, -0.8466666666666667, -0.8733333333333333, -0.8133333333333334, -0.8133333333333334, -0.41333333333333333, -0.81]","[1, 1, 1, 1, 1, 1, 1]","[0, 0, 0, 0, 0, 0, 0]","[0, 0, 0, 0, 0, 0, 0]","[1.3987310999073088, 2.396956899901852, 3.101170599926263, 3.334097299957648, 3.4817451999988407, 4.202335000038147, 4.947441299911588]","['L', 'clear_', 'send', 'send', 'send', 'P', 'send']",274.98389559984207,274.98389559984207,274.98389559984207,,,,,,,,,,,,,,,,,,,,,,,,,,1,,,,,,,,350454372,Relâmpago Marquin,2024-10-10_19h06.47.606,symspan,2022.2.1,60.97958833651357,
5,,,,,,,,,,,,,,,,,,,,,,,,,,,,,,,,,,,,,1,2,5,2,0,0,0,0,,,,,,,,,,,,,,,,,,,,,,,,,,,,,,,,,,,,,,,,,,,,,,,,,,,,276.9845392999705,276.9845392999705,0.012782000005245209,images/symm48.jpg,asymmetric,no,3.982437300030142,,,,,8.459994569420815e-05,1,0,0,,,,,,,,,,,,,,,,350454372,Relâmpago Marquin,2024-10-10_19h06.47.606,symspan,2022.2.1,60.97958833651357,
5,,,,,,,,,,,,,,,,,,,,,,,,,,,,,,,,,,,,,1,2,5,2,1,0,1,0,,,,,,,,,,,,,,,,,,,,,,,,,,,,,,,,,,,,,,,,,,,,,,,,,,,,282.9678238998167,282.9678238998167,0.0034793999511748552,images/symm9.jpg,symmetric,yes,3.9826080000493675,,,,,3.9599835872650146e-05,1,0,0,,,,,,,,,,,,,,,,350454372,Relâmpago Marquin,2024-10-10_19h06.47.606,symspan,2022.2.1,60.97958833651357,
5,,,,,,,,,,,,,,,,,,,,,,,,,,,,,,,,,,,,,1,2,5,2,2,0,2,0,,,,,,,,,,,,,,,,,,,,,,,,,,,,,,,,,,,,,,,,,,,,,,,,,,,,288.9505135999061,288.9505135999061,0.003276800038293004,images/symm1.jpg,symmetric,yes,3.981706000166014,,,,,4.029995761811733e-05,1,0,0,,,,,,,,,,,,,,,,350454372,Relâmpago Marquin,2024-10-10_19h06.47.606,symspan,2022.2.1,60.97958833651357,
5,,,,,,,,,,,,,,,,,,,,,,,,,,,,,,,,,,,,,1,2,5,2,3,0,3,0,,,,,,,,,,,,,,,,,,,,,,,,,,,,,,,,,,,,,,,,,,,,,,,,,,,,294.9343594999518,294.9343594999518,0.0031755000818520784,images/symm44.jpg,asymmetric,no,3.983096299925819,,,,,5.04001509398222e-05,1,0,0,,,,,,,,,,,,,,,,350454372,Relâmpago Marquin,2024-10-10_19h06.47.606,symspan,2022.2.1,60.97958833651357,
5,,,,,,,,,,,,,,,,,,,,,,,,,,,,,,,,,,,,,1,2,5,2,4,0,4,0,,,,,,,,,,,,,,,,,,,,,,,,,,,,,,,,,,,,,,,,,,,,,,,,,,,,300.916830400005,300.916830400005,0.0011838001664727926,images/symm36.jpg,asymmetric,no,3.9985142999794334,,,,,3.4300144761800766e-05,1,0,0,,,,,,,,,,,,,,,,350454372,Relâmpago Marquin,2024-10-10_19h06.47.606,symspan,2022.2.1,60.97958833651357,
5,,,,,,,,,,,,,,,,,,,,,,,,,,,,,,,,,,,,,1,2,5,2,,,,,,,,,,,,,306.95086520002224,306.95086520002224,306.95086520002224,306.95086520002224,306.95086520002224,306.95086520002224,306.95086520002224,306.95086520002224,306.95086520002224,306.95086520002224,306.95086520002224,306.95086520002224,306.95086520002224,306.95086520002224,306.95086520002224,306.95086520002224,306.95086520002224,306.95086520002224,306.95086520002224,306.95086520002224,0.023013200145214796,BENOJ,A,0,0,0,symspan_testing_trials,15,24,62.5,"[-0.32, 0.5422222222222223]","[0.47, -0.8066666666666666]","[1, 1]","[0, 0]","[0, 0]","[1.615395300090313, 2.4694320999551564]","['A', 'send']",309.4332011998631,309.4332011998631,309.4332011998631,,,,,,,,,,,,,,,,,,,,,,,,,,5,,,,,,,,350454372,Relâmpago Marquin,2024-10-10_19h06.47.606,symspan,2022.2.1,60.97958833651357,
5,,,,,,,,,,,,,,,,,,,,,,,,,,,,,,,,,,,,,2,0,6,2,0,0,0,0,,,,,,,,,,,,,,,,,,,,,,,,,,,,,,,,,,,,,,,,,,,,,,,,,,,,311.4169798998628,311.4169798998628,0.008054299978539348,images/symm11.jpg,symmetric,yes,3.996997900074348,,,,,3.939983434975147e-05,1,0,0,,,,,,,,,,,,,,,,350454372,Relâmpago Marquin,2024-10-10_19h06.47.606,symspan,2022.2.1,60.97958833651357,
5,,,,,,,,,,,,,,,,,,,,,,,,,,,,,,,,,,,,,2,0,6,2,1,0,1,0,,,,,,,,,,,,,,,,,,,,,,,,,,,,,,,,,,,,,,,,,,,,,,,,,,,,317.4156145998277,317.4156145998277,0.0020840000361204147,images/symm29.jpg,asymmetric,no,2.0997250000946224,319.5147249000147,319.5147249000147,319.5147249000147,2.6900088414549828e-05,0.6328318999148905,0,0,1,no,,,,,,,,,,,,,,,350454372,Relâmpago Marquin,2024-10-10_19h06.47.606,symspan,2022.2.1,60.97958833651357,
5,,,,,,,,,,,,,,,,,,,,,,,,,,,,,,,,,,,,,2,0,6,2,2,0,2,0,,,,,,,,,,,,,,,,,,,,,,,,,,,,,,,,,,,,,,,,,,,,,,,,,,,,322.1480139999185,322.1480139999185,0.0015597001183778048,images/symm43.jpg,asymmetric,no,1.6501606001984328,323.79814830003306,323.79814830003306,323.79814830003306,2.6900088414549828e-05,0.5656830999068916,0,1,0,yes,,,,,,,,,,,,,,,350454372,Relâmpago Marquin,2024-10-10_19h06.47.606,symspan,2022.2.1,60.97958833651357,
5,,,,,,,,,,,,,,,,,,,,,,,,,,,,,,,,,,,,,2,0,6,2,3,0,3,0,,,,,,,,,,,,,,,,,,,,,,,,,,,,,,,,,,,,,,,,,,,,,,,,,,,,326.3652207998093,326.3652207998093,0.0015304000116884708,images/symm35.jpg,asymmetric,no,0.6834956998936832,327.04766319994815,327.04766319994815,327.04766319994815,2.7299858629703522e-05,0.766911800019443,0,1,0,yes,,,,,,,,,,,,,,,350454372,Relâmpago Marquin,2024-10-10_19h06.47.606,symspan,2022.2.1,60.97958833651357,
5,,,,,,,,,,,,,,,,,,,,,,,,,,,,,,,,,,,,,2,0,6,2,4,0,4,0,,,,,,,,,,,,,,,,,,,,,,,,,,,,,,,,,,,,,,,,,,,,,,,,,,,,329.81446100003086,329.81446100003086,0.002126599894836545,images/symm39.jpg,asymmetric,no,1.06682169996202,330.88062479998916,330.88062479998916,330.88062479998916,2.6200199499726295e-05,2.915486899903044,1,0,0,,,,,,,,,,,,,,,,350454372,Relâmpago Marquin,2024-10-10_19h06.47.606,symspan,2022.2.1,60.97958833651357,
5,,,,,,,,,,,,,,,,,,,,,,,,,,,,,,,,,,,,,2,0,6,2,,,,,,,,,,,,,335.83262380003,335.83262380003,335.83262380003,335.83262380003,335.83262380003,335.83262380003,335.83262380003,335.83262380003,335.83262380003,335.83262380003,335.83262380003,335.83262380003,335.83262380003,335.83262380003,335.83262380003,335.83262380003,335.83262380003,335.83262380003,335.83262380003,335.83262380003,0.022233800031244755,BGOPH,OMIH,0,0,1,symspan_testing_trials,16,29,55.172413793103445,"[0.006666666666666667, -0.25333333333333335, -0.33555555555555555, 0.3888888888888889, 0.5866666666666667]","[-0.4766666666666667, -0.44, -0.25, 0.17666666666666667, -0.7933333333333333]","[1, 1, 1, 1, 1]","[0, 0, 0, 0, 0]","[0, 0, 0, 0, 0]","[0.3997561000287533, 0.7169595998711884, 1.0334149000700563, 1.5327923998702317, 2.1823086000513285]","['O', 'M', 'I', 'H', 'send']",338.01343779987656,338.01343779987656,338.01343779987656,,,,,,,,,,,,,,,,,,,,,,,,,,4,,,,,,,,350454372,Relâmpago Marquin,2024-10-10_19h06.47.606,symspan,2022.2.1,60.97958833651357,
4,,,,,,,,,,,,,,,,,,,,,,,,,,,,,,,,,,,,,2,1,7,1,0,0,0,0,,,,,,,,,,,,,,,,,,,,,,,,,,,,,,,,,,,,,,,,,,,,,,,,,,,,340.0136114000343,340.0136114000343,0.012282200157642365,images/symm41.jpg,asymmetric,no,3.982075599953532,,,,,3.520003519952297e-05,1,0,0,,,,,,,,,,,,,,,,350454372,Relâmpago Marquin,2024-10-10_19h06.47.606,symspan,2022.2.1,60.97958833651357,
4,,,,,,,,,,,,,,,,,,,,,,,,,,,,,,,,,,,,,2,1,7,1,1,0,1,0,,,,,,,,,,,,,,,,,,,,,,,,,,,,,,,,,,,,,,,,,,,,,,,,,,,,345.99754609982483,345.99754609982483,0.003099600085988641,images/symm4.jpg,symmetric,yes,3.9824645000044256,,,,,3.3800024539232254e-05,1,0,0,,,,,,,,,,,,,,,,350454372,Relâmpago Marquin,2024-10-10_19h06.47.606,symspan,2022.2.1,60.97958833651357,
4,,,,,,,,,,,,,,,,,,,,,,,,,,,,,,,,,,,,,2,1,7,1,2,0,2,0,,,,,,,,,,,,,,,,,,,,,,,,,,,,,,,,,,,,,,,,,,,,,,,,,,,,351.97967149992473,351.97967149992473,0.0023545001167804003,images/symm15.jpg,symmetric,yes,3.982007799902931,,,,,6.010010838508606e-05,1,0,0,,,,,,,,,,,,,,,,350454372,Relâmpago Marquin,2024-10-10_19h06.47.606,symspan,2022.2.1,60.97958833651357,
4,,,,,,,,,,,,,,,,,,,,,,,,,,,,,,,,,,,,,2,1,7,1,3,0,3,0,,,,,,,,,,,,,,,,,,,,,,,,,,,,,,,,,,,,,,,,,,,,,,,,,,,,357.9636827998329,357.9636827998329,0.001593699911609292,images/symm8.jpg,symmetric,yes,3.983282000059262,,,,,3.3999793231487274e-05,1,0,0,,,,,,,,,,,,,,,,350454372,Relâmpago Marquin,2024-10-10_19h06.47.606,symspan,2022.2.1,60.97958833651357,
4,,,,,,,,,,,,,,,,,,,,,,,,,,,,,,,,,,,,,2,1,7,1,,,,,,,,,,,,,363.98033589986153,363.98033589986153,363.98033589986153,363.98033589986153,363.98033589986153,363.98033589986153,363.98033589986153,363.98033589986153,363.98033589986153,363.98033589986153,363.98033589986153,363.98033589986153,363.98033589986153,363.98033589986153,363.98033589986153,363.98033589986153,363.98033589986153,363.98033589986153,363.98033589986153,363.98033589986153,0.023301600012928247,ENGH,F,0,0,0,symspan_testing_trials,16,33,48.484848484848484,"[-0.1711111111111111, 0.6355555555555555]","[0.14333333333333334, -0.78]","[1, 1]","[0, 0]","[0, 0]","[22.03258390002884, 22.861752999946475]","['F', 'send']",386.84463499998674,386.84463499998674,386.84463499998674,,,,,,,,,,,,,,,,,,,,,,,,,,4,,,,,,,,350454372,Relâmpago Marquin,2024-10-10_19h06.47.606,symspan,2022.2.1,60.97958833651357,
3,,,,,,,,,,,,,,,,,,,,,,,,,,,,,,,,,,,,,2,2,8,0,0,0,0,0,,,,,,,,,,,,,,,,,,,,,,,,,,,,,,,,,,,,,,,,,,,,,,,,,,,,388.8447229999583,388.8447229999583,0.014002999989315867,images/symm2.jpg,symmetric,yes,3.9823492001742125,,,,,5.119992420077324e-05,1,0,0,,,,,,,,,,,,,,,,350454372,Relâmpago Marquin,2024-10-10_19h06.47.606,symspan,2022.2.1,60.97958833651357,
3,,,,,,,,,,,,,,,,,,,,,,,,,,,,,,,,,,,,,2,2,8,0,1,0,1,0,,,,,,,,,,,,,,,,,,,,,,,,,,,,,,,,,,,,,,,,,,,,,,,,,,,,394.8284920998849,394.8284920998849,0.002343700034543872,images/symm5.jpg,symmetric,yes,3.983391499845311,,,,,3.609992563724518e-05,1,0,0,,,,,,,,,,,,,,,,350454372,Relâmpago Marquin,2024-10-10_19h06.47.606,symspan,2022.2.1,60.97958833651357,
3,,,,,,,,,,,,,,,,,,,,,,,,,,,,,,,,,,,,,2,2,8,0,2,0,2,0,,,,,,,,,,,,,,,,,,,,,,,,,,,,,,,,,,,,,,,,,,,,,,,,,,,,400.810872099828,400.810872099828,0.0011535000521689653,images/symm18.jpg,symmetric,yes,3.9819053998216987,,,,,6.240000948309898e-05,1,0,0,,,,,,,,,,,,,,,,350454372,Relâmpago Marquin,2024-10-10_19h06.47.606,symspan,2022.2.1,60.97958833651357,
3,,,,,,,,,,,,,,,,,,,,,,,,,,,,,,,,,,,,,2,2,8,0,,,,,,,,,,,,,406.82897479995154,406.82897479995154,406.82897479995154,406.82897479995154,406.82897479995154,406.82897479995154,406.82897479995154,406.82897479995154,406.82897479995154,406.82897479995154,406.82897479995154,406.82897479995154,406.82897479995154,406.82897479995154,406.82897479995154,406.82897479995154,406.82897479995154,406.82897479995154,406.82897479995154,406.82897479995154,0.022959199966862798,CBJ,M,0,0,0,symspan_testing_trials,16,36,44.44444444444444,"[-0.24444444444444444, 0.6022222222222222]","[-0.43333333333333335, -0.7733333333333333]","[1, 1]","[0, 0]","[0, 0]","[0.7987211998552084, 1.4305900998879224]","['M', 'send']",408.26016519987024,408.26016519987024,408.26016519987024,,,,,,,,,,,,,,,,,,,,,,,,,,3,,,,,,,,350454372,Relâmpago Marquin,2024-10-10_19h06.47.606,symspan,2022.2.1,60.97958833651357,
,,,,,,,,,,,,,,,,,,,,,,,,,,,,,,,,,,,,,,,,,,,,,,,,350454372,,,,,,,,,,,,,,,,,,,,,,,,,,,,,,,,,,,,,,,,,,,,,,,,,,,,,,,,,,,,,,,,,,,,,,,410.29361179983243,410.29361179983243,410.29361179983243,370.48779499996454,12,12,13,,,,,,,
