leftori,rightori,same,corrAns,angle,trials.thisRepN,trials.thisTrialN,trials.thisN,trials.thisIndex,instr_txt_1.started,instr_key_1.started,instr_key_1.keys,instr_key_1.rt,image_L_3.started,image_R_3.started,instr_txt_2.started,instr_key_2.started,mini_pause_2.started,mini_pause_2.stopped,image_L.started,image_R.started,response.started,main_instr.started,trial_count.started,response.keys,response.corr,response.rt,mini_pause.started,mini_pause.stopped,end_txt.started,end_key.started,session,participant,date,expName,psychopyVersion,frameRate,
,,,,,,,,,19.40719790000003,19.40719790000003,m,1.9937575999938417,,,,,,,,,,,,,,,,,,,001,ana,2022-12-31_00h59.07.521,MentalRot,2022.2.1,60.051692496399,
0,225,n,n,225,0,0,0,10,,,,,21.489319400003296,21.489319400003296,21.489319400003296,21.489319400003296,22.41776530000061,23.940662600005453,23.940662600005453,23.940662600005453,23.940662600005453,23.940662600005453,23.940662600005453,n,1,1.3960493999984465,25.367833100004646,25.875416300004872,,,001,ana,2022-12-31_00h59.07.521,MentalRot,2022.2.1,60.051692496399,
0,225,y,m,225,0,1,1,11,,,,,,,,,,,25.875416300004872,25.875416300004872,25.875416300004872,25.875416300004872,25.875416300004872,m,1,0.7246703999990132,26.617367400001967,27.12725430000137,,,001,ana,2022-12-31_00h59.07.521,MentalRot,2022.2.1,60.051692496399,
0,0,n,n,0,0,2,2,0,,,,,,,,,,,27.12725430000137,27.12725430000137,27.12725430000137,27.12725430000137,27.12725430000137,n,1,0.7059885999988182,27.850425700002233,28.359537700001965,,,001,ana,2022-12-31_00h59.07.521,MentalRot,2022.2.1,60.051692496399,
0,90,y,m,90,0,3,3,5,,,,,,,,,,,28.359537700001965,28.359537700001965,28.359537700001965,28.359537700001965,28.359537700001965,m,1,0.5928347000008216,28.98394499999995,29.493001900002128,,,001,ana,2022-12-31_00h59.07.521,MentalRot,2022.2.1,60.051692496399,
0,135,y,m,135,0,4,4,7,,,,,,,,,,,29.493001900002128,29.493001900002128,29.493001900002128,29.493001900002128,29.493001900002128,m,1,0.5402017000014894,30.0508295000036,30.560114800005977,,,001,ana,2022-12-31_00h59.07.521,MentalRot,2022.2.1,60.051692496399,
0,315,n,n,315,0,5,5,14,,,,,,,,,,,30.560114800005977,30.560114800005977,30.560114800005977,30.560114800005977,30.560114800005977,m,0,0.7058087999976124,31.283947500000068,31.791665900003863,,,001,ana,2022-12-31_00h59.07.521,MentalRot,2022.2.1,60.051692496399,
0,0,y,m,0,0,6,6,1,,,,,,,,,,,31.791665900003863,31.791665900003863,31.791665900003863,31.791665900003863,31.791665900003863,m,1,0.6576304999980493,32.467446599999676,32.97948610000458,,,001,ana,2022-12-31_00h59.07.521,MentalRot,2022.2.1,60.051692496399,
0,180,y,m,180,0,7,7,9,,,,,,,,,,,32.97948610000458,32.97948610000458,32.97948610000458,32.97948610000458,32.97948610000458,m,1,1.4446486000015284,34.45046050000383,34.96188640000037,,,001,ana,2022-12-31_00h59.07.521,MentalRot,2022.2.1,60.051692496399,
0,270,y,m,270,0,8,8,13,,,,,,,,,,,34.96188640000037,34.96188640000037,34.96188640000037,34.96188640000037,34.96188640000037,m,1,0.7042432000016561,35.68367440000293,36.19600310000533,,,001,ana,2022-12-31_00h59.07.521,MentalRot,2022.2.1,60.051692496399,
0,45,n,n,45,0,9,9,2,,,,,,,,,,,36.19600310000533,36.19600310000533,36.19600310000533,36.19600310000533,36.19600310000533,n,1,0.6286254000006011,36.84999840000091,37.35915470000327,,,001,ana,2022-12-31_00h59.07.521,MentalRot,2022.2.1,60.051692496399,
0,315,y,m,315,0,10,10,15,,,,,,,,,,,37.35915470000327,37.35915470000327,37.35915470000327,37.35915470000327,37.35915470000327,m,1,0.8741156999967643,38.250138100003824,38.7548397999999,,,001,ana,2022-12-31_00h59.07.521,MentalRot,2022.2.1,60.051692496399,
0,90,n,n,90,0,11,11,4,,,,,,,,,,,38.7548397999999,38.7548397999999,38.7548397999999,38.7548397999999,38.7548397999999,n,1,0.8453066000001854,39.61663120000594,40.12468649999937,,,001,ana,2022-12-31_00h59.07.521,MentalRot,2022.2.1,60.051692496399,
0,270,n,n,270,0,12,12,12,,,,,,,,,,,40.12468649999937,40.12468649999937,40.12468649999937,40.12468649999937,40.12468649999937,n,1,1.1318587999994634,41.28329450000456,41.790300400003616,,,001,ana,2022-12-31_00h59.07.521,MentalRot,2022.2.1,60.051692496399,
0,180,n,n,180,0,13,13,8,,,,,,,,,,,41.790300400003616,41.790300400003616,41.790300400003616,41.790300400003616,41.790300400003616,n,1,0.8177237999989302,42.63347580000118,43.14127520000329,,,001,ana,2022-12-31_00h59.07.521,MentalRot,2022.2.1,60.051692496399,
0,45,y,m,45,0,14,14,3,,,,,,,,,,,43.14127520000329,43.14127520000329,43.14127520000329,43.14127520000329,43.14127520000329,m,1,0.7245180999962031,43.88311760000215,44.388997900001414,,,001,ana,2022-12-31_00h59.07.521,MentalRot,2022.2.1,60.051692496399,
0,135,n,n,135,0,15,15,6,,,,,,,,,,,44.388997900001414,44.388997900001414,44.388997900001414,44.388997900001414,44.388997900001414,n,1,0.811752699999488,45.216473700005736,45.72408590000123,,,001,ana,2022-12-31_00h59.07.521,MentalRot,2022.2.1,60.051692496399,
0,180,y,m,180,1,0,16,9,,,,,,,,,,,45.72408590000123,45.72408590000123,45.72408590000123,45.72408590000123,45.72408590000123,m,1,0.7647167000031914,46.51626370000304,47.02133260000119,,,001,ana,2022-12-31_00h59.07.521,MentalRot,2022.2.1,60.051692496399,
0,45,n,n,45,1,1,17,2,,,,,,,,,,,47.02133260000119,47.02133260000119,47.02133260000119,47.02133260000119,47.02133260000119,n,1,0.6674872000003234,47.716696300005424,48.22452770000382,,,001,ana,2022-12-31_00h59.07.521,MentalRot,2022.2.1,60.051692496399,
0,225,n,n,225,1,2,18,10,,,,,,,,,,,48.22452770000382,48.22452770000382,48.22452770000382,48.22452770000382,48.22452770000382,n,1,0.8007261999955517,49.04972070000076,49.55752660000144,,,001,ana,2022-12-31_00h59.07.521,MentalRot,2022.2.1,60.051692496399,
0,270,n,n,270,1,3,19,12,,,,,,,,,,,49.55752660000144,49.55752660000144,49.55752660000144,49.55752660000144,49.55752660000144,n,1,0.6749880999996094,50.25010970000585,50.75623980000091,,,001,ana,2022-12-31_00h59.07.521,MentalRot,2022.2.1,60.051692496399,
0,135,y,m,135,1,4,20,7,,,,,,,,,,,50.75623980000091,50.75623980000091,50.75623980000091,50.75623980000091,50.75623980000091,m,1,0.6208910999994259,51.39954650000436,51.906155900003796,,,001,ana,2022-12-31_00h59.07.521,MentalRot,2022.2.1,60.051692496399,
0,180,n,n,180,1,5,21,8,,,,,,,,,,,51.906155900003796,51.906155900003796,51.906155900003796,51.906155900003796,51.906155900003796,n,1,1.6946240999968722,53.63268410000455,54.139488300002995,,,001,ana,2022-12-31_00h59.07.521,MentalRot,2022.2.1,60.051692496399,
0,0,y,m,0,1,6,22,1,,,,,,,,,,,54.139488300002995,54.139488300002995,54.139488300002995,54.139488300002995,54.139488300002995,m,1,0.4768645000003744,54.63254990000132,55.133154499999364,,,001,ana,2022-12-31_00h59.07.521,MentalRot,2022.2.1,60.051692496399,
0,45,y,m,45,1,7,23,3,,,,,,,,,,,55.133154499999364,55.133154499999364,55.133154499999364,55.133154499999364,55.133154499999364,m,1,0.771138999996765,55.93235590000404,56.439806000002136,,,001,ana,2022-12-31_00h59.07.521,MentalRot,2022.2.1,60.051692496399,
0,315,y,m,315,1,8,24,15,,,,,,,,,,,56.439806000002136,56.439806000002136,56.439806000002136,56.439806000002136,56.439806000002136,m,1,0.6725163999944925,57.1325594000009,57.63831200000277,,,001,ana,2022-12-31_00h59.07.521,MentalRot,2022.2.1,60.051692496399,
0,90,n,n,90,1,9,25,4,,,,,,,,,,,57.63831200000277,57.63831200000277,57.63831200000277,57.63831200000277,57.63831200000277,n,1,0.6583982000011019,58.31580640000175,58.823402000001806,,,001,ana,2022-12-31_00h59.07.521,MentalRot,2022.2.1,60.051692496399,
0,135,n,n,135,1,10,26,6,,,,,,,,,,,58.823402000001806,58.823402000001806,58.823402000001806,58.823402000001806,58.823402000001806,n,1,0.7846334999994724,59.63274040000397,60.142667700005404,,,001,ana,2022-12-31_00h59.07.521,MentalRot,2022.2.1,60.051692496399,
0,315,n,n,315,1,11,27,14,,,,,,,,,,,60.142667700005404,60.142667700005404,60.142667700005404,60.142667700005404,60.142667700005404,n,1,0.7775200999967637,60.94922050000605,61.455111499999475,,,001,ana,2022-12-31_00h59.07.521,MentalRot,2022.2.1,60.051692496399,
0,0,n,n,0,1,12,28,0,,,,,,,,,,,61.455111499999475,61.455111499999475,61.455111499999475,61.455111499999475,61.455111499999475,n,1,0.5781906999982311,62.06557370000519,62.57333530000324,,,001,ana,2022-12-31_00h59.07.521,MentalRot,2022.2.1,60.051692496399,
0,270,y,m,270,1,13,29,13,,,,,,,,,,,62.57333530000324,62.57333530000324,62.57333530000324,62.57333530000324,62.57333530000324,m,1,0.858803999995871,63.44882830000279,63.959942400004365,,,001,ana,2022-12-31_00h59.07.521,MentalRot,2022.2.1,60.051692496399,
0,90,y,m,90,1,14,30,5,,,,,,,,,,,63.959942400004365,63.959942400004365,63.959942400004365,63.959942400004365,63.959942400004365,m,1,0.6482820999954129,64.63239109999995,65.1395546000058,,,001,ana,2022-12-31_00h59.07.521,MentalRot,2022.2.1,60.051692496399,
0,225,y,m,225,1,15,31,11,,,,,,,,,,,65.1395546000058,65.1395546000058,65.1395546000058,65.1395546000058,65.1395546000058,m,1,0.8056863999954658,65.96562200000335,66.4721514000048,,,001,ana,2022-12-31_00h59.07.521,MentalRot,2022.2.1,60.051692496399,
0,90,y,m,90,2,0,32,5,,,,,,,,,,,66.4721514000048,66.4721514000048,66.4721514000048,66.4721514000048,66.4721514000048,m,1,0.5211934000035399,67.01549950000481,67.52629230000457,,,001,ana,2022-12-31_00h59.07.521,MentalRot,2022.2.1,60.051692496399,
0,270,y,m,270,2,1,33,13,,,,,,,,,,,67.52629230000457,67.52629230000457,67.52629230000457,67.52629230000457,67.52629230000457,n,0,0.5620507999992697,68.11522650000552,68.62256280000292,,,001,ana,2022-12-31_00h59.07.521,MentalRot,2022.2.1,60.051692496399,
0,180,y,m,180,2,2,34,9,,,,,,,,,,,68.62256280000292,68.62256280000292,68.62256280000292,68.62256280000292,68.62256280000292,m,1,0.6658279000039329,69.31554329999926,69.82745880000584,,,001,ana,2022-12-31_00h59.07.521,MentalRot,2022.2.1,60.051692496399,
0,180,n,n,180,2,3,35,8,,,,,,,,,,,69.82745880000584,69.82745880000584,69.82745880000584,69.82745880000584,69.82745880000584,n,1,0.6384469000040554,70.48212559999956,70.98914599999989,,,001,ana,2022-12-31_00h59.07.521,MentalRot,2022.2.1,60.051692496399,
0,315,y,m,315,2,4,36,15,,,,,,,,,,,70.98914599999989,70.98914599999989,70.98914599999989,70.98914599999989,70.98914599999989,m,1,0.6037118000022019,71.61528330000147,72.12637410000025,,,001,ana,2022-12-31_00h59.07.521,MentalRot,2022.2.1,60.051692496399,
0,270,n,n,270,2,5,37,12,,,,,,,,,,,72.12637410000025,72.12637410000025,72.12637410000025,72.12637410000025,72.12637410000025,n,1,0.6820682999968994,72.83192899999995,73.33759710000595,,,001,ana,2022-12-31_00h59.07.521,MentalRot,2022.2.1,60.051692496399,
0,225,y,m,225,2,6,38,11,,,,,,,,,,,73.33759710000595,73.33759710000595,73.33759710000595,73.33759710000595,73.33759710000595,m,1,0.6231913999945391,73.98156510000263,74.48783670000557,,,001,ana,2022-12-31_00h59.07.521,MentalRot,2022.2.1,60.051692496399,
0,315,n,n,315,2,7,39,14,,,,,,,,,,,74.48783670000557,74.48783670000557,74.48783670000557,74.48783670000557,74.48783670000557,n,1,0.6255157999985386,75.13176130000647,75.6402756000025,,,001,ana,2022-12-31_00h59.07.521,MentalRot,2022.2.1,60.051692496399,
0,90,n,n,90,2,8,40,4,,,,,,,,,,,75.6402756000025,75.6402756000025,75.6402756000025,75.6402756000025,75.6402756000025,n,1,0.688470100001723,76.34864030000608,76.85500010000396,,,001,ana,2022-12-31_00h59.07.521,MentalRot,2022.2.1,60.051692496399,
0,135,y,m,135,2,9,41,7,,,,,,,,,,,76.85500010000396,76.85500010000396,76.85500010000396,76.85500010000396,76.85500010000396,n,0,0.5609581000026083,77.4480720000065,77.95608139999968,,,001,ana,2022-12-31_00h59.07.521,MentalRot,2022.2.1,60.051692496399,
0,45,y,m,45,2,10,42,3,,,,,,,,,,,77.95608139999968,77.95608139999968,77.95608139999968,77.95608139999968,77.95608139999968,m,1,0.5082261999996263,78.48149960000592,78.99482320000243,,,001,ana,2022-12-31_00h59.07.521,MentalRot,2022.2.1,60.051692496399,
0,135,n,n,135,2,11,43,6,,,,,,,,,,,78.99482320000243,78.99482320000243,78.99482320000243,78.99482320000243,78.99482320000243,m,0,0.47775890000048093,79.49855160000152,80.00393780000013,,,001,ana,2022-12-31_00h59.07.521,MentalRot,2022.2.1,60.051692496399,
0,0,y,m,0,2,12,44,1,,,,,,,,,,,80.00393780000013,80.00393780000013,80.00393780000013,80.00393780000013,80.00393780000013,m,1,0.5968958999947063,80.63148890000593,81.13774420000118,,,001,ana,2022-12-31_00h59.07.521,MentalRot,2022.2.1,60.051692496399,
0,0,n,n,0,2,13,45,0,,,,,,,,,,,81.13774420000118,81.13774420000118,81.13774420000118,81.13774420000118,81.13774420000118,n,1,0.6146356000026572,81.78168100000039,82.28928029999952,,,001,ana,2022-12-31_00h59.07.521,MentalRot,2022.2.1,60.051692496399,
0,45,n,n,45,2,14,46,2,,,,,,,,,,,82.28928029999952,82.28928029999952,82.28928029999952,82.28928029999952,82.28928029999952,n,1,0.6720617999962997,82.98157770000398,83.48996080000506,,,001,ana,2022-12-31_00h59.07.521,MentalRot,2022.2.1,60.051692496399,
0,225,n,n,225,2,15,47,10,,,,,,,,,,,83.48996080000506,83.48996080000506,83.48996080000506,83.48996080000506,83.48996080000506,n,1,0.726815500005614,84.24818980000418,84.75249150000309,,,001,ana,2022-12-31_00h59.07.521,MentalRot,2022.2.1,60.051692496399,
0,45,y,m,45,3,0,48,3,,,,,,,,,,,84.75249150000309,84.75249150000309,84.75249150000309,84.75249150000309,84.75249150000309,m,1,0.5195848000003025,85.297750800004,85.8022781000036,,,001,ana,2022-12-31_00h59.07.521,MentalRot,2022.2.1,60.051692496399,
0,270,n,n,270,3,1,49,12,,,,,,,,,,,85.8022781000036,85.8022781000036,85.8022781000036,85.8022781000036,85.8022781000036,n,1,0.7585680999982287,86.58138440000039,87.08162790000642,,,001,ana,2022-12-31_00h59.07.521,MentalRot,2022.2.1,60.051692496399,
0,180,y,m,180,3,2,50,9,,,,,,,,,,,87.08162790000642,87.08162790000642,87.08162790000642,87.08162790000642,87.08162790000642,m,1,0.7666089000049396,87.86449020000146,88.37184130000242,,,001,ana,2022-12-31_00h59.07.521,MentalRot,2022.2.1,60.051692496399,
0,315,n,n,315,3,3,51,14,,,,,,,,,,,88.37184130000242,88.37184130000242,88.37184130000242,88.37184130000242,88.37184130000242,n,1,0.6128192000032868,89.014413900004,89.51996019999933,,,001,ana,2022-12-31_00h59.07.521,MentalRot,2022.2.1,60.051692496399,
0,0,y,m,0,3,4,52,1,,,,,,,,,,,89.51996019999933,89.51996019999933,89.51996019999933,89.51996019999933,89.51996019999933,m,1,0.5211797999945702,90.06458779999957,90.57181710000441,,,001,ana,2022-12-31_00h59.07.521,MentalRot,2022.2.1,60.051692496399,
0,135,n,n,135,3,5,53,6,,,,,,,,,,,90.57181710000441,90.57181710000441,90.57181710000441,90.57181710000441,90.57181710000441,n,1,0.8929272999957902,91.48096550000628,91.99248300000181,,,001,ana,2022-12-31_00h59.07.521,MentalRot,2022.2.1,60.051692496399,
0,45,n,n,45,3,6,54,2,,,,,,,,,,,91.99248300000181,91.99248300000181,91.99248300000181,91.99248300000181,91.99248300000181,n,1,0.559723500002292,92.58135140000377,93.08812880000187,,,001,ana,2022-12-31_00h59.07.521,MentalRot,2022.2.1,60.051692496399,
0,270,y,m,270,3,7,55,13,,,,,,,,,,,93.08812880000187,93.08812880000187,93.08812880000187,93.08812880000187,93.08812880000187,n,0,0.5600584999992861,93.66410270000051,94.17139440000028,,,001,ana,2022-12-31_00h59.07.521,MentalRot,2022.2.1,60.051692496399,
0,225,n,n,225,3,8,56,10,,,,,,,,,,,94.17139440000028,94.17139440000028,94.17139440000028,94.17139440000028,94.17139440000028,n,1,0.6046265000040876,94.79751700000634,95.30821730000025,,,001,ana,2022-12-31_00h59.07.521,MentalRot,2022.2.1,60.051692496399,
0,90,y,m,90,3,9,57,5,,,,,,,,,,,95.30821730000025,95.30821730000025,95.30821730000025,95.30821730000025,95.30821730000025,m,1,0.7169800999981817,96.04771070000425,96.55593420000514,,,001,ana,2022-12-31_00h59.07.521,MentalRot,2022.2.1,60.051692496399,
0,135,y,m,135,3,10,58,7,,,,,,,,,,,96.55593420000514,96.55593420000514,96.55593420000514,96.55593420000514,96.55593420000514,m,1,0.7415767999991658,97.3142885000052,97.82357870000124,,,001,ana,2022-12-31_00h59.07.521,MentalRot,2022.2.1,60.051692496399,
0,225,y,m,225,3,11,59,11,,,,,,,,,,,97.82357870000124,97.82357870000124,97.82357870000124,97.82357870000124,97.82357870000124,m,1,0.7285396000006585,98.58070640000369,99.08834349999961,,,001,ana,2022-12-31_00h59.07.521,MentalRot,2022.2.1,60.051692496399,
0,180,n,n,180,3,12,60,8,,,,,,,,,,,99.08834349999961,99.08834349999961,99.08834349999961,99.08834349999961,99.08834349999961,n,1,1.104201699999976,100.21406480000587,100.72305220000271,,,001,ana,2022-12-31_00h59.07.521,MentalRot,2022.2.1,60.051692496399,
0,315,y,m,315,3,13,61,15,,,,,,,,,,,100.72305220000271,100.72305220000271,100.72305220000271,100.72305220000271,100.72305220000271,m,1,0.565358699997887,101.31406850000349,101.82193130000087,,,001,ana,2022-12-31_00h59.07.521,MentalRot,2022.2.1,60.051692496399,
0,0,n,n,0,3,14,62,0,,,,,,,,,,,101.82193130000087,101.82193130000087,101.82193130000087,101.82193130000087,101.82193130000087,n,1,0.6033637000000454,102.44757090000348,102.95813810000254,,,001,ana,2022-12-31_00h59.07.521,MentalRot,2022.2.1,60.051692496399,
0,90,n,n,90,3,15,63,4,,,,,,,,,,,102.95813810000254,102.95813810000254,102.95813810000254,102.95813810000254,102.95813810000254,n,1,0.6268114999984391,103.61375400000543,104.12183039999945,,,001,ana,2022-12-31_00h59.07.521,MentalRot,2022.2.1,60.051692496399,
0,90,n,n,90,4,0,64,4,,,,,,,,,,,104.12183039999945,104.12183039999945,104.12183039999945,104.12183039999945,104.12183039999945,n,1,0.6871741000068141,104.83056550000038,105.3388208000033,,,001,ana,2022-12-31_00h59.07.521,MentalRot,2022.2.1,60.051692496399,
0,315,y,m,315,4,1,65,15,,,,,,,,,,,105.3388208000033,105.3388208000033,105.3388208000033,105.3388208000033,105.3388208000033,m,1,0.4932381000035093,105.86412860000564,106.36886510000477,,,001,ana,2022-12-31_00h59.07.521,MentalRot,2022.2.1,60.051692496399,
0,0,n,n,0,4,2,66,0,,,,,,,,,,,106.36886510000477,106.36886510000477,106.36886510000477,106.36886510000477,106.36886510000477,n,1,0.5913310000032652,106.98021680000238,107.48867370000517,,,001,ana,2022-12-31_00h59.07.521,MentalRot,2022.2.1,60.051692496399,
0,315,n,n,315,4,3,67,14,,,,,,,,,,,107.48867370000517,107.48867370000517,107.48867370000517,107.48867370000517,107.48867370000517,n,1,0.6403797000020859,108.14718320000247,108.65613990000566,,,001,ana,2022-12-31_00h59.07.521,MentalRot,2022.2.1,60.051692496399,
0,90,y,m,90,4,4,68,5,,,,,,,,,,,108.65613990000566,108.65613990000566,108.65613990000566,108.65613990000566,108.65613990000566,m,1,0.6483044999986305,109.33007170000201,109.83990410000115,,,001,ana,2022-12-31_00h59.07.521,MentalRot,2022.2.1,60.051692496399,
0,270,y,m,270,4,5,69,13,,,,,,,,,,,109.83990410000115,109.83990410000115,109.83990410000115,109.83990410000115,109.83990410000115,m,1,0.7125914999996894,110.58054560000164,111.08614520000265,,,001,ana,2022-12-31_00h59.07.521,MentalRot,2022.2.1,60.051692496399,
0,45,n,n,45,4,6,70,2,,,,,,,,,,,111.08614520000265,111.08614520000265,111.08614520000265,111.08614520000265,111.08614520000265,n,1,0.5783784000013839,111.69691720000264,112.20453140000609,,,001,ana,2022-12-31_00h59.07.521,MentalRot,2022.2.1,60.051692496399,
0,270,n,n,270,4,7,71,12,,,,,,,,,,,112.20453140000609,112.20453140000609,112.20453140000609,112.20453140000609,112.20453140000609,n,1,0.5646515000044019,112.79678120000608,113.30499980000604,,,001,ana,2022-12-31_00h59.07.521,MentalRot,2022.2.1,60.051692496399,
0,225,n,n,225,4,8,72,10,,,,,,,,,,,113.30499980000604,113.30499980000604,113.30499980000604,113.30499980000604,113.30499980000604,n,1,0.9361949000012828,114.26328110000031,114.76987350000127,,,001,ana,2022-12-31_00h59.07.521,MentalRot,2022.2.1,60.051692496399,
0,0,y,m,0,4,9,73,1,,,,,,,,,,,114.76987350000127,114.76987350000127,114.76987350000127,114.76987350000127,114.76987350000127,m,1,0.559165300001041,115.3469619000025,115.85417960000632,,,001,ana,2022-12-31_00h59.07.521,MentalRot,2022.2.1,60.051692496399,
0,225,y,m,225,4,10,74,11,,,,,,,,,,,115.85417960000632,115.85417960000632,115.85417960000632,115.85417960000632,115.85417960000632,m,1,0.6592089999976452,116.52986940000119,117.03703760000644,,,001,ana,2022-12-31_00h59.07.521,MentalRot,2022.2.1,60.051692496399,
0,45,y,m,45,4,11,75,3,,,,,,,,,,,117.03703760000644,117.03703760000644,117.03703760000644,117.03703760000644,117.03703760000644,m,1,0.6206069000036223,117.67968470000051,118.18692290000035,,,001,ana,2022-12-31_00h59.07.521,MentalRot,2022.2.1,60.051692496399,
0,135,n,n,135,4,12,76,6,,,,,,,,,,,118.18692290000035,118.18692290000035,118.18692290000035,118.18692290000035,118.18692290000035,n,1,0.653237700003956,118.86356550000346,119.37072220000118,,,001,ana,2022-12-31_00h59.07.521,MentalRot,2022.2.1,60.051692496399,
0,180,y,m,180,4,13,77,9,,,,,,,,,,,119.37072220000118,119.37072220000118,119.37072220000118,119.37072220000118,119.37072220000118,m,1,0.7097808999969857,120.09630680000555,120.60429740000109,,,001,ana,2022-12-31_00h59.07.521,MentalRot,2022.2.1,60.051692496399,
0,135,y,m,135,4,14,78,7,,,,,,,,,,,120.60429740000109,120.60429740000109,120.60429740000109,120.60429740000109,120.60429740000109,m,1,0.5728218000003835,121.19644379999954,121.70379610000236,,,001,ana,2022-12-31_00h59.07.521,MentalRot,2022.2.1,60.051692496399,
0,180,n,n,180,4,15,79,8,,,,,,,,,,,121.70379610000236,121.70379610000236,121.70379610000236,121.70379610000236,121.70379610000236,n,1,0.6895261999961804,122.41335260000051,122.92400160000398,,,001,ana,2022-12-31_00h59.07.521,MentalRot,2022.2.1,60.051692496399,
0,225,y,m,225,5,0,80,11,,,,,,,,,,,122.92400160000398,122.92400160000398,122.92400160000398,122.92400160000398,122.92400160000398,m,1,0.572508099998231,123.51258210000378,124.0243294000029,,,001,ana,2022-12-31_00h59.07.521,MentalRot,2022.2.1,60.051692496399,
0,135,y,m,135,5,1,81,7,,,,,,,,,,,124.0243294000029,124.0243294000029,124.0243294000029,124.0243294000029,124.0243294000029,m,1,0.7598842000006698,124.81238250000024,125.31701109999995,,,001,ana,2022-12-31_00h59.07.521,MentalRot,2022.2.1,60.051692496399,
0,180,y,m,180,5,2,82,9,,,,,,,,,,,125.31701109999995,125.31701109999995,125.31701109999995,125.31701109999995,125.31701109999995,m,1,0.7320461999988765,126.07922360000521,126.58779490000597,,,001,ana,2022-12-31_00h59.07.521,MentalRot,2022.2.1,60.051692496399,
0,180,n,n,180,5,3,83,8,,,,,,,,,,,126.58779490000597,126.58779490000597,126.58779490000597,126.58779490000597,126.58779490000597,n,1,0.9809705000006943,127.5963539000004,128.0961374000035,,,001,ana,2022-12-31_00h59.07.521,MentalRot,2022.2.1,60.051692496399,
0,90,y,m,90,5,4,84,5,,,,,,,,,,,128.0961374000035,128.0961374000035,128.0961374000035,128.0961374000035,128.0961374000035,m,1,0.5924156999972183,128.71249360000365,129.21637000000192,,,001,ana,2022-12-31_00h59.07.521,MentalRot,2022.2.1,60.051692496399,
0,135,n,n,135,5,5,85,6,,,,,,,,,,,129.21637000000192,129.21637000000192,129.21637000000192,129.21637000000192,129.21637000000192,n,1,0.6173997000005329,129.86245670000062,130.36965440000495,,,001,ana,2022-12-31_00h59.07.521,MentalRot,2022.2.1,60.051692496399,
0,90,n,n,90,5,6,86,4,,,,,,,,,,,130.36965440000495,130.36965440000495,130.36965440000495,130.36965440000495,130.36965440000495,n,1,0.5505362000039895,130.9457414999997,131.45258010000543,,,001,ana,2022-12-31_00h59.07.521,MentalRot,2022.2.1,60.051692496399,
0,270,y,m,270,5,7,87,13,,,,,,,,,,,131.45258010000543,131.45258010000543,131.45258010000543,131.45258010000543,131.45258010000543,m,1,0.5235546999974758,131.99571540000034,132.5077053000059,,,001,ana,2022-12-31_00h59.07.521,MentalRot,2022.2.1,60.051692496399,
0,0,y,m,0,5,8,88,1,,,,,,,,,,,132.5077053000059,132.5077053000059,132.5077053000059,132.5077053000059,132.5077053000059,m,1,0.46900800000003073,132.99557360000472,133.5034753,,,001,ana,2022-12-31_00h59.07.521,MentalRot,2022.2.1,60.051692496399,
0,45,n,n,45,5,9,89,2,,,,,,,,,,,133.5034753,133.5034753,133.5034753,133.5034753,133.5034753,n,1,0.5372963000045274,134.06249030000617,134.56754940000246,,,001,ana,2022-12-31_00h59.07.521,MentalRot,2022.2.1,60.051692496399,
0,225,n,n,225,5,10,90,10,,,,,,,,,,,134.56754940000246,134.56754940000246,134.56754940000246,134.56754940000246,134.56754940000246,n,1,0.7775559000001522,135.36251630000334,135.87205910000193,,,001,ana,2022-12-31_00h59.07.521,MentalRot,2022.2.1,60.051692496399,
0,0,n,n,0,5,11,91,0,,,,,,,,,,,135.87205910000193,135.87205910000193,135.87205910000193,135.87205910000193,135.87205910000193,n,1,0.5759946000034688,136.4791428000026,136.9863661000054,,,001,ana,2022-12-31_00h59.07.521,MentalRot,2022.2.1,60.051692496399,
0,315,y,m,315,5,12,92,15,,,,,,,,,,,136.9863661000054,136.9863661000054,136.9863661000054,136.9863661000054,136.9863661000054,m,1,0.5192390000011073,137.5288434000031,138.0380082000047,,,001,ana,2022-12-31_00h59.07.521,MentalRot,2022.2.1,60.051692496399,
0,270,n,n,270,5,13,93,12,,,,,,,,,,,138.0380082000047,138.0380082000047,138.0380082000047,138.0380082000047,138.0380082000047,n,1,0.707479599994258,138.76229080000485,139.26962240000285,,,001,ana,2022-12-31_00h59.07.521,MentalRot,2022.2.1,60.051692496399,
0,315,n,n,315,5,14,94,14,,,,,,,,,,,139.26962240000285,139.26962240000285,139.26962240000285,139.26962240000285,139.26962240000285,n,1,0.5304974000027869,139.8286739000032,140.34032630000002,,,001,ana,2022-12-31_00h59.07.521,MentalRot,2022.2.1,60.051692496399,
0,45,y,m,45,5,15,95,3,,,,,,,,,,,140.34032630000002,140.34032630000002,140.34032630000002,140.34032630000002,140.34032630000002,m,1,0.6516428000031738,141.01240110000072,141.51695270000346,,,001,ana,2022-12-31_00h59.07.521,MentalRot,2022.2.1,60.051692496399,
0,135,n,n,135,6,0,96,6,,,,,,,,,,,141.51695270000346,141.51695270000346,141.51695270000346,141.51695270000346,141.51695270000346,n,1,0.6847543000039877,142.22866290000093,142.73724770000263,,,001,ana,2022-12-31_00h59.07.521,MentalRot,2022.2.1,60.051692496399,
0,90,y,m,90,6,1,97,5,,,,,,,,,,,142.73724770000263,142.73724770000263,142.73724770000263,142.73724770000263,142.73724770000263,n,0,0.4958684000011999,143.26205630000186,143.7706610000023,,,001,ana,2022-12-31_00h59.07.521,MentalRot,2022.2.1,60.051692496399,
0,0,y,m,0,6,2,98,1,,,,,,,,,,,143.7706610000023,143.7706610000023,143.7706610000023,143.7706610000023,143.7706610000023,m,1,0.5181300999975065,144.31216920000588,144.82016710000607,,,001,ana,2022-12-31_00h59.07.521,MentalRot,2022.2.1,60.051692496399,
0,180,y,m,180,6,3,99,9,,,,,,,,,,,144.82016710000607,144.82016710000607,144.82016710000607,144.82016710000607,144.82016710000607,m,1,0.9480707999973674,145.795395000001,146.300791200003,,,001,ana,2022-12-31_00h59.07.521,MentalRot,2022.2.1,60.051692496399,
0,315,y,m,315,6,4,100,15,,,,,,,,,,,146.300791200003,146.300791200003,146.300791200003,146.300791200003,146.300791200003,m,1,0.5879181999989669,146.91202460000204,147.41995200000383,,,001,ana,2022-12-31_00h59.07.521,MentalRot,2022.2.1,60.051692496399,
0,315,n,n,315,6,5,101,14,,,,,,,,,,,147.41995200000383,147.41995200000383,147.41995200000383,147.41995200000383,147.41995200000383,n,1,0.532473300001584,147.97861150000244,148.4849310999998,,,001,ana,2022-12-31_00h59.07.521,MentalRot,2022.2.1,60.051692496399,
0,270,n,n,270,6,6,102,12,,,,,,,,,,,148.4849310999998,148.4849310999998,148.4849310999998,148.4849310999998,148.4849310999998,n,1,0.6760169999979553,149.1783540000033,149.68509489999997,,,001,ana,2022-12-31_00h59.07.521,MentalRot,2022.2.1,60.051692496399,
0,270,y,m,270,6,7,103,13,,,,,,,,,,,149.68509489999997,149.68509489999997,149.68509489999997,149.68509489999997,149.68509489999997,m,1,0.5555534999948577,150.2619995999994,150.7685505000045,,,001,ana,2022-12-31_00h59.07.521,MentalRot,2022.2.1,60.051692496399,
0,180,n,n,180,6,8,104,8,,,,,,,,,,,150.7685505000045,150.7685505000045,150.7685505000045,150.7685505000045,150.7685505000045,n,1,0.9835289000038756,151.77844950000144,152.2851468000008,,,001,ana,2022-12-31_00h59.07.521,MentalRot,2022.2.1,60.051692496399,
0,0,n,n,0,6,9,105,0,,,,,,,,,,,152.2851468000008,152.2851468000008,152.2851468000008,152.2851468000008,152.2851468000008,n,1,0.5404689999995753,152.8453260000024,153.3523684000029,,,001,ana,2022-12-31_00h59.07.521,MentalRot,2022.2.1,60.051692496399,
0,45,n,n,45,6,10,106,2,,,,,,,,,,,153.3523684000029,153.3523684000029,153.3523684000029,153.3523684000029,153.3523684000029,n,1,0.5760738999961177,153.94519420000142,154.44583600000624,,,001,ana,2022-12-31_00h59.07.521,MentalRot,2022.2.1,60.051692496399,
0,45,y,m,45,6,11,107,3,,,,,,,,,,,154.44583600000624,154.44583600000624,154.44583600000624,154.44583600000624,154.44583600000624,m,1,0.4906219999975292,154.96118350000324,155.46339920000173,,,001,ana,2022-12-31_00h59.07.521,MentalRot,2022.2.1,60.051692496399,
0,225,n,n,225,6,12,108,10,,,,,,,,,,,155.46339920000173,155.46339920000173,155.46339920000173,155.46339920000173,155.46339920000173,n,1,0.6885708999980125,156.17847450000409,156.67910940000002,,,001,ana,2022-12-31_00h59.07.521,MentalRot,2022.2.1,60.051692496399,
0,135,y,m,135,6,13,109,7,,,,,,,,,,,156.67910940000002,156.67910940000002,156.67910940000002,156.67910940000002,156.67910940000002,m,1,0.8353252000015345,157.5447187000027,158.05723610000132,,,001,ana,2022-12-31_00h59.07.521,MentalRot,2022.2.1,60.051692496399,
0,90,n,n,90,6,14,110,4,,,,,,,,,,,158.05723610000132,158.05723610000132,158.05723610000132,158.05723610000132,158.05723610000132,n,1,0.5911848000032478,158.67784910000046,159.18468770000618,,,001,ana,2022-12-31_00h59.07.521,MentalRot,2022.2.1,60.051692496399,
0,225,y,m,225,6,15,111,11,,,,,,,,,,,159.18468770000618,159.18468770000618,159.18468770000618,159.18468770000618,159.18468770000618,m,1,0.7522771000003559,159.96146730000328,160.46749300000374,,,001,ana,2022-12-31_00h59.07.521,MentalRot,2022.2.1,60.051692496399,
0,180,n,n,180,7,0,112,8,,,,,,,,,,,160.46749300000374,160.46749300000374,160.46749300000374,160.46749300000374,160.46749300000374,n,1,0.8607908000049065,161.34465060000366,161.85017290000542,,,001,ana,2022-12-31_00h59.07.521,MentalRot,2022.2.1,60.051692496399,
0,270,y,m,270,7,1,113,13,,,,,,,,,,,161.85017290000542,161.85017290000542,161.85017290000542,161.85017290000542,161.85017290000542,m,1,0.623207899996487,162.49473830000352,163.00244690000545,,,001,ana,2022-12-31_00h59.07.521,MentalRot,2022.2.1,60.051692496399,
0,45,n,n,45,7,2,114,2,,,,,,,,,,,163.00244690000545,163.00244690000545,163.00244690000545,163.00244690000545,163.00244690000545,m,0,0.533736500001396,163.56137850000232,164.0666996,,,001,ana,2022-12-31_00h59.07.521,MentalRot,2022.2.1,60.051692496399,
0,225,n,n,225,7,3,115,10,,,,,,,,,,,164.0666996,164.0666996,164.0666996,164.0666996,164.0666996,n,1,0.9655825000008917,165.06112040000153,165.56866860000446,,,001,ana,2022-12-31_00h59.07.521,MentalRot,2022.2.1,60.051692496399,
0,90,n,n,90,7,4,116,4,,,,,,,,,,,165.56866860000446,165.56866860000446,165.56866860000446,165.56866860000446,165.56866860000446,n,1,0.6482993999961764,166.24430260000372,166.74857400000474,,,001,ana,2022-12-31_00h59.07.521,MentalRot,2022.2.1,60.051692496399,
0,90,y,m,90,7,5,117,5,,,,,,,,,,,166.74857400000474,166.74857400000474,166.74857400000474,166.74857400000474,166.74857400000474,m,1,0.6837145000026794,167.46090480000566,167.96613760000037,,,001,ana,2022-12-31_00h59.07.521,MentalRot,2022.2.1,60.051692496399,
0,180,y,m,180,7,6,118,9,,,,,,,,,,,167.96613760000037,167.96613760000037,167.96613760000037,167.96613760000037,167.96613760000037,n,0,0.7381030000033206,168.72739970000111,169.2356654000032,,,001,ana,2022-12-31_00h59.07.521,MentalRot,2022.2.1,60.051692496399,
0,135,y,m,135,7,7,119,7,,,,,,,,,,,169.2356654000032,169.2356654000032,169.2356654000032,169.2356654000032,169.2356654000032,m,1,0.7017593999989913,169.9607019000032,170.46892959999968,,,001,ana,2022-12-31_00h59.07.521,MentalRot,2022.2.1,60.051692496399,
0,315,y,m,315,7,8,120,15,,,,,,,,,,,170.46892959999968,170.46892959999968,170.46892959999968,170.46892959999968,170.46892959999968,m,1,0.8841896000012639,171.37750100000267,171.88590600000316,,,001,ana,2022-12-31_00h59.07.521,MentalRot,2022.2.1,60.051692496399,
0,225,y,m,225,7,9,121,11,,,,,,,,,,,171.88590600000316,171.88590600000316,171.88590600000316,171.88590600000316,171.88590600000316,m,1,0.6193888999987394,172.52704530000483,173.03598250000505,,,001,ana,2022-12-31_00h59.07.521,MentalRot,2022.2.1,60.051692496399,
0,45,y,m,45,7,10,122,3,,,,,,,,,,,173.03598250000505,173.03598250000505,173.03598250000505,173.03598250000505,173.03598250000505,m,1,0.6855400999993435,173.74419390000548,174.24999380000372,,,001,ana,2022-12-31_00h59.07.521,MentalRot,2022.2.1,60.051692496399,
0,315,n,n,315,7,11,123,14,,,,,,,,,,,174.24999380000372,174.24999380000372,174.24999380000372,174.24999380000372,174.24999380000372,n,1,0.7182647000008728,174.99396820000402,175.49976470000547,,,001,ana,2022-12-31_00h59.07.521,MentalRot,2022.2.1,60.051692496399,
0,135,n,n,135,7,12,124,6,,,,,,,,,,,175.49976470000547,175.49976470000547,175.49976470000547,175.49976470000547,175.49976470000547,n,1,0.732592599997588,176.26057530000253,176.76755680000497,,,001,ana,2022-12-31_00h59.07.521,MentalRot,2022.2.1,60.051692496399,
0,0,n,n,0,7,13,125,0,,,,,,,,,,,176.76755680000497,176.76755680000497,176.76755680000497,176.76755680000497,176.76755680000497,n,1,0.6089609999980894,177.39376410000114,177.90045810000447,,,001,ana,2022-12-31_00h59.07.521,MentalRot,2022.2.1,60.051692496399,
0,0,y,m,0,7,14,126,1,,,,,,,,,,,177.90045810000447,177.90045810000447,177.90045810000447,177.90045810000447,177.90045810000447,m,1,0.4601027000026079,178.37743250000494,178.88879910000105,,,001,ana,2022-12-31_00h59.07.521,MentalRot,2022.2.1,60.051692496399,
0,270,n,n,270,7,15,127,12,,,,,,,,,,,178.88879910000105,178.88879910000105,178.88879910000105,178.88879910000105,178.88879910000105,n,1,0.7043603999991319,179.61050439999963,180.12074310000025,,,001,ana,2022-12-31_00h59.07.521,MentalRot,2022.2.1,60.051692496399,
0,225,y,m,225,8,0,128,11,,,,,,,,,,,180.12074310000025,180.12074310000025,180.12074310000025,180.12074310000025,180.12074310000025,m,1,0.6080001000009361,180.760380300002,181.2657010000039,,,001,ana,2022-12-31_00h59.07.521,MentalRot,2022.2.1,60.051692496399,
0,270,n,n,270,8,1,129,12,,,,,,,,,,,181.2657010000039,181.2657010000039,181.2657010000039,181.2657010000039,181.2657010000039,n,1,0.8151289999950677,182.11022950000188,182.61653600000136,,,001,ana,2022-12-31_00h59.07.521,MentalRot,2022.2.1,60.051692496399,
0,180,n,n,180,8,2,130,8,,,,,,,,,,,182.61653600000136,182.61653600000136,182.61653600000136,182.61653600000136,182.61653600000136,n,1,1.007680700000492,183.64401910000015,184.149568300003,,,001,ana,2022-12-31_00h59.07.521,MentalRot,2022.2.1,60.051692496399,
0,135,y,m,135,8,3,131,7,,,,,,,,,,,184.149568300003,184.149568300003,184.149568300003,184.149568300003,184.149568300003,m,1,0.6191314000025159,184.79329169999983,185.30023790000268,,,001,ana,2022-12-31_00h59.07.521,MentalRot,2022.2.1,60.051692496399,
0,0,n,n,0,8,4,132,0,,,,,,,,,,,185.30023790000268,185.30023790000268,185.30023790000268,185.30023790000268,185.30023790000268,n,1,0.5803438000002643,185.9100116000045,186.41845029999968,,,001,ana,2022-12-31_00h59.07.521,MentalRot,2022.2.1,60.051692496399,
0,315,y,m,315,8,5,133,15,,,,,,,,,,,186.41845029999968,186.41845029999968,186.41845029999968,186.41845029999968,186.41845029999968,m,1,0.5737255999993067,187.0099016000022,187.51697930000228,,,001,ana,2022-12-31_00h59.07.521,MentalRot,2022.2.1,60.051692496399,
0,45,y,m,45,8,6,134,3,,,,,,,,,,,187.51697930000228,187.51697930000228,187.51697930000228,187.51697930000228,187.51697930000228,m,1,0.5482876999958535,188.09320650000154,188.60061790000327,,,001,ana,2022-12-31_00h59.07.521,MentalRot,2022.2.1,60.051692496399,
0,270,y,m,270,8,7,135,13,,,,,,,,,,,188.60061790000327,188.60061790000327,188.60061790000327,188.60061790000327,188.60061790000327,m,1,0.5450303999969037,189.17645400000038,189.68512440000632,,,001,ana,2022-12-31_00h59.07.521,MentalRot,2022.2.1,60.051692496399,
0,135,n,n,135,8,8,136,6,,,,,,,,,,,189.68512440000632,189.68512440000632,189.68512440000632,189.68512440000632,189.68512440000632,n,1,0.6910713000033866,190.39320020000014,190.89968670000235,,,001,ana,2022-12-31_00h59.07.521,MentalRot,2022.2.1,60.051692496399,
0,0,y,m,0,8,9,137,1,,,,,,,,,,,190.89968670000235,190.89968670000235,190.89968670000235,190.89968670000235,190.89968670000235,m,1,0.45429090000106953,191.37652860000526,191.8819930000027,,,001,ana,2022-12-31_00h59.07.521,MentalRot,2022.2.1,60.051692496399,
0,180,y,m,180,8,10,138,9,,,,,,,,,,,191.8819930000027,191.8819930000027,191.8819930000027,191.8819930000027,191.8819930000027,m,1,0.678244700000505,192.57659430000058,193.08168950000254,,,001,ana,2022-12-31_00h59.07.521,MentalRot,2022.2.1,60.051692496399,
0,315,n,n,315,8,11,139,14,,,,,,,,,,,193.08168950000254,193.08168950000254,193.08168950000254,193.08168950000254,193.08168950000254,n,1,0.5993100999985472,193.70947480000177,194.21073199999955,,,001,ana,2022-12-31_00h59.07.521,MentalRot,2022.2.1,60.051692496399,
0,45,n,n,45,8,12,140,2,,,,,,,,,,,194.21073199999955,194.21073199999955,194.21073199999955,194.21073199999955,194.21073199999955,n,1,0.5745429000016884,194.80975469999976,195.316072600006,,,001,ana,2022-12-31_00h59.07.521,MentalRot,2022.2.1,60.051692496399,
0,225,n,n,225,8,13,141,10,,,,,,,,,,,195.316072600006,195.316072600006,195.316072600006,195.316072600006,195.316072600006,n,1,0.8125769999969634,196.15925140000036,196.6714901000014,,,001,ana,2022-12-31_00h59.07.521,MentalRot,2022.2.1,60.051692496399,
0,90,y,m,90,8,14,142,5,,,,,,,,,,,196.6714901000014,196.6714901000014,196.6714901000014,196.6714901000014,196.6714901000014,m,1,0.7707148000044981,197.45962660000077,197.97011860000202,,,001,ana,2022-12-31_00h59.07.521,MentalRot,2022.2.1,60.051692496399,
0,90,n,n,90,8,15,143,4,,,,,,,,,,,197.97011860000202,197.97011860000202,197.97011860000202,197.97011860000202,197.97011860000202,m,0,0.5340347999954247,198.52600320000056,199.03326700000616,,,001,ana,2022-12-31_00h59.07.521,MentalRot,2022.2.1,60.051692496399,
0,45,y,m,45,9,0,144,3,,,,,,,,,,,199.03326700000616,199.03326700000616,199.03326700000616,199.03326700000616,199.03326700000616,m,1,0.5604329999987385,199.60964710000553,200.11476740000217,,,001,ana,2022-12-31_00h59.07.521,MentalRot,2022.2.1,60.051692496399,
0,0,n,n,0,9,1,145,0,,,,,,,,,,,200.11476740000217,200.11476740000217,200.11476740000217,200.11476740000217,200.11476740000217,n,1,0.8454075999979977,200.97619110000232,201.4829408000005,,,001,ana,2022-12-31_00h59.07.521,MentalRot,2022.2.1,60.051692496399,
0,180,y,m,180,9,2,146,9,,,,,,,,,,,201.4829408000005,201.4829408000005,201.4829408000005,201.4829408000005,201.4829408000005,m,1,1.078145700004825,202.592830900001,203.1000434000016,,,001,ana,2022-12-31_00h59.07.521,MentalRot,2022.2.1,60.051692496399,
0,90,n,n,90,9,3,147,4,,,,,,,,,,,203.1000434000016,203.1000434000016,203.1000434000016,203.1000434000016,203.1000434000016,n,1,0.6605304999975488,203.7926712000044,204.29808369999955,,,001,ana,2022-12-31_00h59.07.521,MentalRot,2022.2.1,60.051692496399,
0,45,n,n,45,9,4,148,2,,,,,,,,,,,204.29808369999955,204.29808369999955,204.29808369999955,204.29808369999955,204.29808369999955,n,1,0.5752027000053204,204.89256780000142,205.39852220000466,,,001,ana,2022-12-31_00h59.07.521,MentalRot,2022.2.1,60.051692496399,
0,225,n,n,225,9,5,149,10,,,,,,,,,,,205.39852220000466,205.39852220000466,205.39852220000466,205.39852220000466,205.39852220000466,n,1,0.8988318000047002,206.32585610000388,206.83364560000336,,,001,ana,2022-12-31_00h59.07.521,MentalRot,2022.2.1,60.051692496399,
0,90,y,m,90,9,6,150,5,,,,,,,,,,,206.83364560000336,206.83364560000336,206.83364560000336,206.83364560000336,206.83364560000336,m,1,0.5761836000019684,207.4423370000004,207.94892410000466,,,001,ana,2022-12-31_00h59.07.521,MentalRot,2022.2.1,60.051692496399,
0,135,y,m,135,9,7,151,7,,,,,,,,,,,207.94892410000466,207.94892410000466,207.94892410000466,207.94892410000466,207.94892410000466,m,1,0.6033711000054609,208.57562000000325,209.08200610000495,,,001,ana,2022-12-31_00h59.07.521,MentalRot,2022.2.1,60.051692496399,
0,135,n,n,135,9,8,152,6,,,,,,,,,,,209.08200610000495,209.08200610000495,209.08200610000495,209.08200610000495,209.08200610000495,n,1,0.7023742999954266,209.80917420000333,210.31739020000532,,,001,ana,2022-12-31_00h59.07.521,MentalRot,2022.2.1,60.051692496399,
0,270,n,n,270,9,9,153,12,,,,,,,,,,,210.31739020000532,210.31739020000532,210.31739020000532,210.31739020000532,210.31739020000532,n,1,0.9148384999934933,211.2589392000009,211.7655522000059,,,001,ana,2022-12-31_00h59.07.521,MentalRot,2022.2.1,60.051692496399,
0,315,n,n,315,9,10,154,14,,,,,,,,,,,211.7655522000059,211.7655522000059,211.7655522000059,211.7655522000059,211.7655522000059,n,1,0.7317001999981585,212.52536210000108,213.03327170000557,,,001,ana,2022-12-31_00h59.07.521,MentalRot,2022.2.1,60.051692496399,
0,270,y,m,270,9,11,155,13,,,,,,,,,,,213.03327170000557,213.03327170000557,213.03327170000557,213.03327170000557,213.03327170000557,m,1,0.5919244000033359,213.6423552000051,214.14895360000082,,,001,ana,2022-12-31_00h59.07.521,MentalRot,2022.2.1,60.051692496399,
0,315,y,m,315,9,12,156,15,,,,,,,,,,,214.14895360000082,214.14895360000082,214.14895360000082,214.14895360000082,214.14895360000082,m,1,0.5396072000003187,214.70860399999947,215.21738360000018,,,001,ana,2022-12-31_00h59.07.521,MentalRot,2022.2.1,60.051692496399,
0,180,n,n,180,9,13,157,8,,,,,,,,,,,215.21738360000018,215.21738360000018,215.21738360000018,215.21738360000018,215.21738360000018,n,1,0.8627161999975215,216.10885950000375,216.6168797000064,,,001,ana,2022-12-31_00h59.07.521,MentalRot,2022.2.1,60.051692496399,
0,0,y,m,0,9,14,158,1,,,,,,,,,,,216.6168797000064,216.6168797000064,216.6168797000064,216.6168797000064,216.6168797000064,m,1,0.5528292000017245,217.19222420000006,217.69839740000316,,,001,ana,2022-12-31_00h59.07.521,MentalRot,2022.2.1,60.051692496399,
0,225,y,m,225,9,15,159,11,,,,,,,,,,,217.69839740000316,217.69839740000316,217.69839740000316,217.69839740000316,217.69839740000316,m,1,0.6301409999941825,218.35840360000293,218.8587789000012,,,001,ana,2022-12-31_00h59.07.521,MentalRot,2022.2.1,60.051692496399,
,,,,,,,,,,,,,,,,,,,,,,,,,,,,,218.8587789000012,218.8587789000012,,,,,,,
