leftori,rightori,same,corrAns,angle,trials.thisRepN,trials.thisTrialN,trials.thisN,trials.thisIndex,instr_txt_1.started,instr_key_1.started,instr_key_1.keys,instr_key_1.rt,image_L_3.started,image_R_3.started,instr_txt_2.started,instr_key_2.started,mini_pause_2.started,mini_pause_2.stopped,image_L.started,image_R.started,response.started,main_instr.started,trial_count.started,response.keys,response.corr,response.rt,mini_pause.started,mini_pause.stopped,end_txt.started,end_key.started,session,participant,date,expName,psychopyVersion,frameRate,
,,,,,,,,,36.86146149999695,36.86146149999695,m,1.1128402999966056,,,,,,,,,,,,,,,,,,,001,bia,2022-12-31_01h03.34.738,MentalRot,2022.2.1,59.960378180551416,
0,225,y,m,225,0,0,0,11,,,,,38.07028469999932,38.07028469999932,38.07028469999932,38.07028469999932,39.1003372999985,40.6252744999947,40.6252744999947,40.6252744999947,40.6252744999947,40.6252744999947,40.6252744999947,m,1,0.6692685000016354,41.3170586999986,41.824967699998524,,,001,bia,2022-12-31_01h03.34.738,MentalRot,2022.2.1,59.960378180551416,
0,180,y,m,180,0,1,1,9,,,,,,,,,,,41.824967699998524,41.824967699998524,41.824967699998524,41.824967699998524,41.824967699998524,m,1,0.997025600001507,42.85042749999411,43.358545299997786,,,001,bia,2022-12-31_01h03.34.738,MentalRot,2022.2.1,59.960378180551416,
0,135,y,m,135,0,2,2,7,,,,,,,,,,,43.358545299997786,43.358545299997786,43.358545299997786,43.358545299997786,43.358545299997786,m,1,0.6796718000041437,44.06690809999418,44.57496009999886,,,001,bia,2022-12-31_01h03.34.738,MentalRot,2022.2.1,59.960378180551416,
0,225,n,n,225,0,3,3,10,,,,,,,,,,,44.57496009999886,44.57496009999886,44.57496009999886,44.57496009999886,44.57496009999886,n,1,0.9595836000080453,45.56685109999671,46.07482579999487,,,001,bia,2022-12-31_01h03.34.738,MentalRot,2022.2.1,59.960378180551416,
0,45,n,n,45,0,4,4,2,,,,,,,,,,,46.07482579999487,46.07482579999487,46.07482579999487,46.07482579999487,46.07482579999487,n,1,0.7312385000041104,46.83334049999394,47.34114309999859,,,001,bia,2022-12-31_01h03.34.738,MentalRot,2022.2.1,59.960378180551416,
0,0,y,m,0,0,5,5,1,,,,,,,,,,,47.34114309999859,47.34114309999859,47.34114309999859,47.34114309999859,47.34114309999859,m,1,0.5055782999988878,47.86677629999758,48.37560680000024,,,001,bia,2022-12-31_01h03.34.738,MentalRot,2022.2.1,59.960378180551416,
0,315,y,m,315,0,6,6,15,,,,,,,,,,,48.37560680000024,48.37560680000024,48.37560680000024,48.37560680000024,48.37560680000024,m,1,0.5349083999972208,48.93340529999841,49.440062699999544,,,001,bia,2022-12-31_01h03.34.738,MentalRot,2022.2.1,59.960378180551416,
0,270,n,n,270,0,7,7,12,,,,,,,,,,,49.440062699999544,49.440062699999544,49.440062699999544,49.440062699999544,49.440062699999544,n,1,0.6868739000055939,50.14988979999907,50.658189399997354,,,001,bia,2022-12-31_01h03.34.738,MentalRot,2022.2.1,59.960378180551416,
0,135,n,n,135,0,8,8,6,,,,,,,,,,,50.658189399997354,50.658189399997354,50.658189399997354,50.658189399997354,50.658189399997354,n,1,0.7965263000005507,51.483260599998175,51.990264100000786,,,001,bia,2022-12-31_01h03.34.738,MentalRot,2022.2.1,59.960378180551416,
0,270,y,m,270,0,9,9,13,,,,,,,,,,,51.990264100000786,51.990264100000786,51.990264100000786,51.990264100000786,51.990264100000786,m,1,0.5597163999991608,52.56644669999514,53.07358419999946,,,001,bia,2022-12-31_01h03.34.738,MentalRot,2022.2.1,59.960378180551416,
0,0,n,n,0,0,10,10,0,,,,,,,,,,,53.07358419999946,53.07358419999946,53.07358419999946,53.07358419999946,53.07358419999946,n,1,0.6043522999971174,53.69948279999517,54.20676370000001,,,001,bia,2022-12-31_01h03.34.738,MentalRot,2022.2.1,59.960378180551416,
0,90,y,m,90,0,11,11,5,,,,,,,,,,,54.20676370000001,54.20676370000001,54.20676370000001,54.20676370000001,54.20676370000001,m,1,0.6153538000071421,54.849936399994476,55.35626290000073,,,001,bia,2022-12-31_01h03.34.738,MentalRot,2022.2.1,59.960378180551416,
0,180,n,n,180,0,12,12,8,,,,,,,,,,,55.35626290000073,55.35626290000073,55.35626290000073,55.35626290000073,55.35626290000073,n,1,0.8590055999957258,56.23302059999696,56.740469999997,,,001,bia,2022-12-31_01h03.34.738,MentalRot,2022.2.1,59.960378180551416,
0,315,n,n,315,0,13,13,14,,,,,,,,,,,56.740469999997,56.740469999997,56.740469999997,56.740469999997,56.740469999997,n,1,0.5786223000031896,57.349566799995955,57.85639329999685,,,001,bia,2022-12-31_01h03.34.738,MentalRot,2022.2.1,59.960378180551416,
0,90,n,n,90,0,14,14,4,,,,,,,,,,,57.85639329999685,57.85639329999685,57.85639329999685,57.85639329999685,57.85639329999685,n,1,0.6784096000046702,58.566146899996966,59.07162879999669,,,001,bia,2022-12-31_01h03.34.738,MentalRot,2022.2.1,59.960378180551416,
0,45,y,m,45,0,15,15,3,,,,,,,,,,,59.07162879999669,59.07162879999669,59.07162879999669,59.07162879999669,59.07162879999669,m,1,0.5113524000043981,59.59970869999961,60.106508299999405,,,001,bia,2022-12-31_01h03.34.738,MentalRot,2022.2.1,59.960378180551416,
0,315,y,m,315,1,0,16,15,,,,,,,,,,,60.106508299999405,60.106508299999405,60.106508299999405,60.106508299999405,60.106508299999405,m,1,0.5635239000039292,60.699370700000145,61.20618719999766,,,001,bia,2022-12-31_01h03.34.738,MentalRot,2022.2.1,59.960378180551416,
0,180,n,n,180,1,1,17,8,,,,,,,,,,,61.20618719999766,61.20618719999766,61.20618719999766,61.20618719999766,61.20618719999766,n,1,0.8421529000042938,62.06612219999806,62.57150329999422,,,001,bia,2022-12-31_01h03.34.738,MentalRot,2022.2.1,59.960378180551416,
0,270,y,m,270,1,2,18,13,,,,,,,,,,,62.57150329999422,62.57150329999422,62.57150329999422,62.57150329999422,62.57150329999422,m,1,0.6111338000046089,63.19918399999733,63.70700819999911,,,001,bia,2022-12-31_01h03.34.738,MentalRot,2022.2.1,59.960378180551416,
0,45,n,n,45,1,3,19,2,,,,,,,,,,,63.70700819999911,63.70700819999911,63.70700819999911,63.70700819999911,63.70700819999911,n,1,0.619454500003485,64.34919999999693,64.85689949999505,,,001,bia,2022-12-31_01h03.34.738,MentalRot,2022.2.1,59.960378180551416,
0,90,y,m,90,1,4,20,5,,,,,,,,,,,64.85689949999505,64.85689949999505,64.85689949999505,64.85689949999505,64.85689949999505,m,1,0.6298355000035372,65.515919999998,66.02183510000032,,,001,bia,2022-12-31_01h03.34.738,MentalRot,2022.2.1,59.960378180551416,
0,225,y,m,225,1,5,21,11,,,,,,,,,,,66.02183510000032,66.02183510000032,66.02183510000032,66.02183510000032,66.02183510000032,m,1,0.68883900000219,66.73275119999744,67.24020879999443,,,001,bia,2022-12-31_01h03.34.738,MentalRot,2022.2.1,59.960378180551416,
0,225,n,n,225,1,6,22,10,,,,,,,,,,,67.24020879999443,67.24020879999443,67.24020879999443,67.24020879999443,67.24020879999443,n,1,0.7755782000022009,68.03276249999908,68.5404383999994,,,001,bia,2022-12-31_01h03.34.738,MentalRot,2022.2.1,59.960378180551416,
0,0,y,m,0,1,7,23,1,,,,,,,,,,,68.5404383999994,68.5404383999994,68.5404383999994,68.5404383999994,68.5404383999994,m,1,0.497740500002692,69.06595579999703,69.57297199999448,,,001,bia,2022-12-31_01h03.34.738,MentalRot,2022.2.1,59.960378180551416,
0,135,y,m,135,1,8,24,7,,,,,,,,,,,69.57297199999448,69.57297199999448,69.57297199999448,69.57297199999448,69.57297199999448,m,1,0.7058688999968581,70.29889909999474,70.81110519999493,,,001,bia,2022-12-31_01h03.34.738,MentalRot,2022.2.1,59.960378180551416,
0,45,y,m,45,1,9,25,3,,,,,,,,,,,70.81110519999493,70.81110519999493,70.81110519999493,70.81110519999493,70.81110519999493,m,1,0.5069733999989694,71.34897459999775,71.85475899999437,,,001,bia,2022-12-31_01h03.34.738,MentalRot,2022.2.1,59.960378180551416,
0,135,n,n,135,1,10,26,6,,,,,,,,,,,71.85475899999437,71.85475899999437,71.85475899999437,71.85475899999437,71.85475899999437,n,1,0.7111089999962132,72.58225819999643,73.08950360000017,,,001,bia,2022-12-31_01h03.34.738,MentalRot,2022.2.1,59.960378180551416,
0,180,y,m,180,1,11,27,9,,,,,,,,,,,73.08950360000017,73.08950360000017,73.08950360000017,73.08950360000017,73.08950360000017,m,1,0.7096183000030578,73.8153244999994,74.31701869999961,,,001,bia,2022-12-31_01h03.34.738,MentalRot,2022.2.1,59.960378180551416,
0,0,n,n,0,1,12,28,0,,,,,,,,,,,74.31701869999961,74.31701869999961,74.31701869999961,74.31701869999961,74.31701869999961,n,1,0.6170140999965952,74.96517959999619,75.4656904999938,,,001,bia,2022-12-31_01h03.34.738,MentalRot,2022.2.1,59.960378180551416,
0,90,n,n,90,1,13,29,4,,,,,,,,,,,75.4656904999938,75.4656904999938,75.4656904999938,75.4656904999938,75.4656904999938,n,1,0.6606934000010369,76.14825919999566,76.65151530000003,,,001,bia,2022-12-31_01h03.34.738,MentalRot,2022.2.1,59.960378180551416,
0,270,n,n,270,1,14,30,12,,,,,,,,,,,76.65151530000003,76.65151530000003,76.65151530000003,76.65151530000003,76.65151530000003,m,0,0.5228006000033929,77.19877749999432,77.7035917999965,,,001,bia,2022-12-31_01h03.34.738,MentalRot,2022.2.1,59.960378180551416,
0,315,n,n,315,1,15,31,14,,,,,,,,,,,77.7035917999965,77.7035917999965,77.7035917999965,77.7035917999965,77.7035917999965,n,1,0.6382509999966715,78.36572080000042,78.87171439999656,,,001,bia,2022-12-31_01h03.34.738,MentalRot,2022.2.1,59.960378180551416,
0,315,n,n,315,2,0,32,14,,,,,,,,,,,78.87171439999656,78.87171439999656,78.87171439999656,78.87171439999656,78.87171439999656,n,1,0.559073400007037,79.44858759999624,79.95609249999688,,,001,bia,2022-12-31_01h03.34.738,MentalRot,2022.2.1,59.960378180551416,
0,45,y,m,45,2,1,33,3,,,,,,,,,,,79.95609249999688,79.95609249999688,79.95609249999688,79.95609249999688,79.95609249999688,m,1,0.45964380000077654,80.43182559999696,80.937357099996,,,001,bia,2022-12-31_01h03.34.738,MentalRot,2022.2.1,59.960378180551416,
0,0,y,m,0,2,2,34,1,,,,,,,,,,,80.937357099996,80.937357099996,80.937357099996,80.937357099996,80.937357099996,m,1,0.5169833000036306,81.48165470000095,81.98739439999918,,,001,bia,2022-12-31_01h03.34.738,MentalRot,2022.2.1,59.960378180551416,
0,135,n,n,135,2,3,35,6,,,,,,,,,,,81.98739439999918,81.98739439999918,81.98739439999918,81.98739439999918,81.98739439999918,n,1,0.9397080999988248,82.94867149999482,83.44878769999923,,,001,bia,2022-12-31_01h03.34.738,MentalRot,2022.2.1,59.960378180551416,
0,0,n,n,0,2,4,36,0,,,,,,,,,,,83.44878769999923,83.44878769999923,83.44878769999923,83.44878769999923,83.44878769999923,n,1,0.5332492000015918,83.99856089999957,84.50400059999811,,,001,bia,2022-12-31_01h03.34.738,MentalRot,2022.2.1,59.960378180551416,
0,225,n,n,225,2,5,37,10,,,,,,,,,,,84.50400059999811,84.50400059999811,84.50400059999811,84.50400059999811,84.50400059999811,n,1,0.662457300000824,85.19871129999956,85.70719950000057,,,001,bia,2022-12-31_01h03.34.738,MentalRot,2022.2.1,59.960378180551416,
0,180,y,m,180,2,6,38,9,,,,,,,,,,,85.70719950000057,85.70719950000057,85.70719950000057,85.70719950000057,85.70719950000057,m,1,0.6108613999967929,86.3483774999986,86.85378499999933,,,001,bia,2022-12-31_01h03.34.738,MentalRot,2022.2.1,59.960378180551416,
0,90,n,n,90,2,7,39,4,,,,,,,,,,,86.85378499999933,86.85378499999933,86.85378499999933,86.85378499999933,86.85378499999933,n,1,0.6559832999992068,87.53144629999588,88.03785239999706,,,001,bia,2022-12-31_01h03.34.738,MentalRot,2022.2.1,59.960378180551416,
0,225,y,m,225,2,8,40,11,,,,,,,,,,,88.03785239999706,88.03785239999706,88.03785239999706,88.03785239999706,88.03785239999706,m,1,0.6159902000072179,88.68139259999589,89.19048909999401,,,001,bia,2022-12-31_01h03.34.738,MentalRot,2022.2.1,59.960378180551416,
0,90,y,m,90,2,9,41,5,,,,,,,,,,,89.19048909999401,89.19048909999401,89.19048909999401,89.19048909999401,89.19048909999401,m,1,0.5601674999998068,89.78142569999909,90.2906365999952,,,001,bia,2022-12-31_01h03.34.738,MentalRot,2022.2.1,59.960378180551416,
0,315,y,m,315,2,10,42,15,,,,,,,,,,,90.2906365999952,90.2906365999952,90.2906365999952,90.2906365999952,90.2906365999952,m,1,0.524185900001612,90.83132009999827,91.33797619999677,,,001,bia,2022-12-31_01h03.34.738,MentalRot,2022.2.1,59.960378180551416,
0,135,y,m,135,2,11,43,7,,,,,,,,,,,91.33797619999677,91.33797619999677,91.33797619999677,91.33797619999677,91.33797619999677,m,1,0.6680048999987775,92.03136959999392,92.53737239999464,,,001,bia,2022-12-31_01h03.34.738,MentalRot,2022.2.1,59.960378180551416,
0,270,y,m,270,2,12,44,13,,,,,,,,,,,92.53737239999464,92.53737239999464,92.53737239999464,92.53737239999464,92.53737239999464,m,1,0.54161419999582,93.09796509999433,93.60597979999875,,,001,bia,2022-12-31_01h03.34.738,MentalRot,2022.2.1,59.960378180551416,
0,180,n,n,180,2,13,45,8,,,,,,,,,,,93.60597979999875,93.60597979999875,93.60597979999875,93.60597979999875,93.60597979999875,n,1,0.7687081999974907,94.39800269999978,94.90213189999486,,,001,bia,2022-12-31_01h03.34.738,MentalRot,2022.2.1,59.960378180551416,
0,45,n,n,45,2,14,46,2,,,,,,,,,,,94.90213189999486,94.90213189999486,94.90213189999486,94.90213189999486,94.90213189999486,n,1,0.945228100004897,95.86471739999979,96.3708970000007,,,001,bia,2022-12-31_01h03.34.738,MentalRot,2022.2.1,59.960378180551416,
0,270,n,n,270,2,15,47,12,,,,,,,,,,,96.3708970000007,96.3708970000007,96.3708970000007,96.3708970000007,96.3708970000007,n,1,0.5885138000012375,96.9812890999965,97.48796279999806,,,001,bia,2022-12-31_01h03.34.738,MentalRot,2022.2.1,59.960378180551416,
0,315,n,n,315,3,0,48,14,,,,,,,,,,,97.48796279999806,97.48796279999806,97.48796279999806,97.48796279999806,97.48796279999806,n,1,0.5114003999988199,98.03095380000013,98.53710069999943,,,001,bia,2022-12-31_01h03.34.738,MentalRot,2022.2.1,59.960378180551416,
0,135,n,n,135,3,1,49,6,,,,,,,,,,,98.53710069999943,98.53710069999943,98.53710069999943,98.53710069999943,98.53710069999943,n,1,0.613318600000639,99.18102329999965,99.6868164999978,,,001,bia,2022-12-31_01h03.34.738,MentalRot,2022.2.1,59.960378180551416,
0,225,n,n,225,3,2,50,10,,,,,,,,,,,99.6868164999978,99.6868164999978,99.6868164999978,99.6868164999978,99.6868164999978,n,1,0.6563793000022997,100.36429139999382,100.8709400000007,,,001,bia,2022-12-31_01h03.34.738,MentalRot,2022.2.1,59.960378180551416,
0,315,y,m,315,3,3,51,15,,,,,,,,,,,100.8709400000007,100.8709400000007,100.8709400000007,100.8709400000007,100.8709400000007,m,1,0.5119238000042969,101.41425799999706,101.92101469999761,,,001,bia,2022-12-31_01h03.34.738,MentalRot,2022.2.1,59.960378180551416,
0,45,n,n,45,3,4,52,2,,,,,,,,,,,101.92101469999761,101.92101469999761,101.92101469999761,101.92101469999761,101.92101469999761,n,1,0.5254833000071812,102.46438900000066,102.96911499999987,,,001,bia,2022-12-31_01h03.34.738,MentalRot,2022.2.1,59.960378180551416,
0,135,y,m,135,3,5,53,7,,,,,,,,,,,102.96911499999987,102.96911499999987,102.96911499999987,102.96911499999987,102.96911499999987,m,1,0.6691753000050085,103.6643344999975,104.16968169999745,,,001,bia,2022-12-31_01h03.34.738,MentalRot,2022.2.1,59.960378180551416,
0,180,y,m,180,3,6,54,9,,,,,,,,,,,104.16968169999745,104.16968169999745,104.16968169999745,104.16968169999745,104.16968169999745,m,1,0.6772350000028382,104.86405869999726,105.36854649999441,,,001,bia,2022-12-31_01h03.34.738,MentalRot,2022.2.1,59.960378180551416,
0,0,n,n,0,3,7,55,0,,,,,,,,,,,105.36854649999441,105.36854649999441,105.36854649999441,105.36854649999441,105.36854649999441,n,1,0.6853829000028782,106.0804563999991,106.58511390000058,,,001,bia,2022-12-31_01h03.34.738,MentalRot,2022.2.1,59.960378180551416,
0,270,n,n,270,3,8,56,12,,,,,,,,,,,106.58511390000058,106.58511390000058,106.58511390000058,106.58511390000058,106.58511390000058,n,1,0.6452701000016532,107.24709810000058,107.74989379999897,,,001,bia,2022-12-31_01h03.34.738,MentalRot,2022.2.1,59.960378180551416,
0,180,n,n,180,3,9,57,8,,,,,,,,,,,107.74989379999897,107.74989379999897,107.74989379999897,107.74989379999897,107.74989379999897,n,1,0.6564979000031599,108.43034989999433,108.93819329999678,,,001,bia,2022-12-31_01h03.34.738,MentalRot,2022.2.1,59.960378180551416,
0,270,y,m,270,3,10,58,13,,,,,,,,,,,108.93819329999678,108.93819329999678,108.93819329999678,108.93819329999678,108.93819329999678,m,1,0.6043549000023631,109.56382509999821,110.06934929999989,,,001,bia,2022-12-31_01h03.34.738,MentalRot,2022.2.1,59.960378180551416,
0,90,y,m,90,3,11,59,5,,,,,,,,,,,110.06934929999989,110.06934929999989,110.06934929999989,110.06934929999989,110.06934929999989,m,1,0.7686992000017199,110.86361269999907,111.36519289999706,,,001,bia,2022-12-31_01h03.34.738,MentalRot,2022.2.1,59.960378180551416,
0,45,y,m,45,3,12,60,3,,,,,,,,,,,111.36519289999706,111.36519289999706,111.36519289999706,111.36519289999706,111.36519289999706,m,1,0.4985512000057497,111.88025889999699,112.39291109999613,,,001,bia,2022-12-31_01h03.34.738,MentalRot,2022.2.1,59.960378180551416,
0,0,y,m,0,3,13,61,1,,,,,,,,,,,112.39291109999613,112.39291109999613,112.39291109999613,112.39291109999613,112.39291109999613,m,1,0.541059100003622,112.96403579999605,113.4679629999955,,,001,bia,2022-12-31_01h03.34.738,MentalRot,2022.2.1,59.960378180551416,
0,225,y,m,225,3,14,62,11,,,,,,,,,,,113.4679629999955,113.4679629999955,113.4679629999955,113.4679629999955,113.4679629999955,m,1,0.6658943000002182,114.16340209999908,114.66817989999981,,,001,bia,2022-12-31_01h03.34.738,MentalRot,2022.2.1,59.960378180551416,
0,90,n,n,90,3,15,63,4,,,,,,,,,,,114.66817989999981,114.66817989999981,114.66817989999981,114.66817989999981,114.66817989999981,n,1,0.6657667000035872,115.3638706999991,115.86836190000031,,,001,bia,2022-12-31_01h03.34.738,MentalRot,2022.2.1,59.960378180551416,
0,315,y,m,315,4,0,64,15,,,,,,,,,,,115.86836190000031,115.86836190000031,115.86836190000031,115.86836190000031,115.86836190000031,m,1,0.5386767000018153,116.42990129999816,116.93970550000085,,,001,bia,2022-12-31_01h03.34.738,MentalRot,2022.2.1,59.960378180551416,
0,45,n,n,45,4,1,65,2,,,,,,,,,,,116.93970550000085,116.93970550000085,116.93970550000085,116.93970550000085,116.93970550000085,n,1,0.6021537000051467,117.56354509999801,118.07076709999819,,,001,bia,2022-12-31_01h03.34.738,MentalRot,2022.2.1,59.960378180551416,
0,225,n,n,225,4,2,66,10,,,,,,,,,,,118.07076709999819,118.07076709999819,118.07076709999819,118.07076709999819,118.07076709999819,n,1,0.6316816000035033,118.73000879999745,119.23672969999461,,,001,bia,2022-12-31_01h03.34.738,MentalRot,2022.2.1,59.960378180551416,
0,0,y,m,0,4,3,67,1,,,,,,,,,,,119.23672969999461,119.23672969999461,119.23672969999461,119.23672969999461,119.23672969999461,m,1,0.5130669999998645,119.77983819999645,120.28917999999976,,,001,bia,2022-12-31_01h03.34.738,MentalRot,2022.2.1,59.960378180551416,
0,180,y,m,180,4,4,68,9,,,,,,,,,,,120.28917999999976,120.28917999999976,120.28917999999976,120.28917999999976,120.28917999999976,m,1,0.6536276999977417,120.96334389999538,121.46574639999744,,,001,bia,2022-12-31_01h03.34.738,MentalRot,2022.2.1,59.960378180551416,
0,0,n,n,0,4,5,69,0,,,,,,,,,,,121.46574639999744,121.46574639999744,121.46574639999744,121.46574639999744,121.46574639999744,n,1,0.5964592000018456,122.07992440000089,122.58645909999905,,,001,bia,2022-12-31_01h03.34.738,MentalRot,2022.2.1,59.960378180551416,
0,270,y,m,270,4,6,70,13,,,,,,,,,,,122.58645909999905,122.58645909999905,122.58645909999905,122.58645909999905,122.58645909999905,m,1,0.5246020999984466,123.12988580000092,123.63581479999993,,,001,bia,2022-12-31_01h03.34.738,MentalRot,2022.2.1,59.960378180551416,
0,135,n,n,135,4,7,71,6,,,,,,,,,,,123.63581479999993,123.63581479999993,123.63581479999993,123.63581479999993,123.63581479999993,n,1,0.8433264999985113,124.49678249999852,125.00364389999595,,,001,bia,2022-12-31_01h03.34.738,MentalRot,2022.2.1,59.960378180551416,
0,270,n,n,270,4,8,72,12,,,,,,,,,,,125.00364389999595,125.00364389999595,125.00364389999595,125.00364389999595,125.00364389999595,n,1,0.6503912999978638,125.67978700000094,126.18601409999974,,,001,bia,2022-12-31_01h03.34.738,MentalRot,2022.2.1,59.960378180551416,
0,90,y,m,90,4,9,73,5,,,,,,,,,,,126.18601409999974,126.18601409999974,126.18601409999974,126.18601409999974,126.18601409999974,m,1,0.6524784000066575,126.86299169999984,127.36943079999764,,,001,bia,2022-12-31_01h03.34.738,MentalRot,2022.2.1,59.960378180551416,
0,90,n,n,90,4,10,74,4,,,,,,,,,,,127.36943079999764,127.36943079999764,127.36943079999764,127.36943079999764,127.36943079999764,n,1,0.7970591000048444,128.196523300001,128.70114929999545,,,001,bia,2022-12-31_01h03.34.738,MentalRot,2022.2.1,59.960378180551416,
0,225,y,m,225,4,11,75,11,,,,,,,,,,,128.70114929999545,128.70114929999545,128.70114929999545,128.70114929999545,128.70114929999545,m,1,0.6414330000043265,129.3628475000005,129.87002799999755,,,001,bia,2022-12-31_01h03.34.738,MentalRot,2022.2.1,59.960378180551416,
0,135,y,m,135,4,12,76,7,,,,,,,,,,,129.87002799999755,129.87002799999755,129.87002799999755,129.87002799999755,129.87002799999755,m,1,0.735931300005177,130.6298179000005,131.13649569999689,,,001,bia,2022-12-31_01h03.34.738,MentalRot,2022.2.1,59.960378180551416,
0,45,y,m,45,4,13,77,3,,,,,,,,,,,131.13649569999689,131.13649569999689,131.13649569999689,131.13649569999689,131.13649569999689,m,1,0.5016791999951238,131.66268989999662,132.1674189999976,,,001,bia,2022-12-31_01h03.34.738,MentalRot,2022.2.1,59.960378180551416,
0,315,n,n,315,4,14,78,14,,,,,,,,,,,132.1674189999976,132.1674189999976,132.1674189999976,132.1674189999976,132.1674189999976,n,1,0.5831602000034763,132.77977959999407,133.28504819999944,,,001,bia,2022-12-31_01h03.34.738,MentalRot,2022.2.1,59.960378180551416,
0,180,n,n,180,4,15,79,8,,,,,,,,,,,133.28504819999944,133.28504819999944,133.28504819999944,133.28504819999944,133.28504819999944,n,1,0.817551200001617,134.12928459999966,134.63378979999834,,,001,bia,2022-12-31_01h03.34.738,MentalRot,2022.2.1,59.960378180551416,
0,180,n,n,180,5,0,80,8,,,,,,,,,,,134.63378979999834,134.63378979999834,134.63378979999834,134.63378979999834,134.63378979999834,n,1,1.0045800000007148,135.66359259999444,136.16935099999682,,,001,bia,2022-12-31_01h03.34.738,MentalRot,2022.2.1,59.960378180551416,
0,0,y,m,0,5,1,81,1,,,,,,,,,,,136.16935099999682,136.16935099999682,136.16935099999682,136.16935099999682,136.16935099999682,m,1,0.532684199999494,136.72949789999984,137.23436499999661,,,001,bia,2022-12-31_01h03.34.738,MentalRot,2022.2.1,59.960378180551416,
0,270,n,n,270,5,2,82,12,,,,,,,,,,,137.23436499999661,137.23436499999661,137.23436499999661,137.23436499999661,137.23436499999661,n,1,0.725013700001,137.97914630000014,138.4811389999959,,,001,bia,2022-12-31_01h03.34.738,MentalRot,2022.2.1,59.960378180551416,
0,45,y,m,45,5,3,83,3,,,,,,,,,,,138.4811389999959,138.4811389999959,138.4811389999959,138.4811389999959,138.4811389999959,m,1,0.4691702000054647,138.97897479999665,139.48131359999388,,,001,bia,2022-12-31_01h03.34.738,MentalRot,2022.2.1,59.960378180551416,
0,90,y,m,90,5,4,84,5,,,,,,,,,,,139.48131359999388,139.48131359999388,139.48131359999388,139.48131359999388,139.48131359999388,m,1,0.7896744000026956,140.29567069999757,140.79819660000067,,,001,bia,2022-12-31_01h03.34.738,MentalRot,2022.2.1,59.960378180551416,
0,225,n,n,225,5,5,85,10,,,,,,,,,,,140.79819660000067,140.79819660000067,140.79819660000067,140.79819660000067,140.79819660000067,n,1,0.760594499995932,141.5788751,142.08780339999794,,,001,bia,2022-12-31_01h03.34.738,MentalRot,2022.2.1,59.960378180551416,
0,270,y,m,270,5,6,86,13,,,,,,,,,,,142.08780339999794,142.08780339999794,142.08780339999794,142.08780339999794,142.08780339999794,m,1,0.5581407000063336,142.6627363000007,143.1708223999958,,,001,bia,2022-12-31_01h03.34.738,MentalRot,2022.2.1,59.960378180551416,
0,225,y,m,225,5,7,87,11,,,,,,,,,,,143.1708223999958,143.1708223999958,143.1708223999958,143.1708223999958,143.1708223999958,m,1,0.939456699998118,144.12915509999584,144.63613479999913,,,001,bia,2022-12-31_01h03.34.738,MentalRot,2022.2.1,59.960378180551416,
0,45,n,n,45,5,8,88,2,,,,,,,,,,,144.63613479999913,144.63613479999913,144.63613479999913,144.63613479999913,144.63613479999913,n,1,0.834727200002817,145.49546169999667,146.00205689999711,,,001,bia,2022-12-31_01h03.34.738,MentalRot,2022.2.1,59.960378180551416,
0,90,n,n,90,5,9,89,4,,,,,,,,,,,146.00205689999711,146.00205689999711,146.00205689999711,146.00205689999711,146.00205689999711,n,1,0.6597225000004983,146.67857349999395,147.18393219999416,,,001,bia,2022-12-31_01h03.34.738,MentalRot,2022.2.1,59.960378180551416,
0,180,y,m,180,5,10,90,9,,,,,,,,,,,147.18393219999416,147.18393219999416,147.18393219999416,147.18393219999416,147.18393219999416,m,1,0.6789108000011765,147.89541969999846,148.40299129999767,,,001,bia,2022-12-31_01h03.34.738,MentalRot,2022.2.1,59.960378180551416,
0,0,n,n,0,5,11,91,0,,,,,,,,,,,148.40299129999767,148.40299129999767,148.40299129999767,148.40299129999767,148.40299129999767,n,1,0.675903900002595,149.09538809999503,149.60300869999628,,,001,bia,2022-12-31_01h03.34.738,MentalRot,2022.2.1,59.960378180551416,
0,135,n,n,135,5,12,92,6,,,,,,,,,,,149.60300869999628,149.60300869999628,149.60300869999628,149.60300869999628,149.60300869999628,n,1,0.5872592000014265,150.21210929999506,150.7166442999951,,,001,bia,2022-12-31_01h03.34.738,MentalRot,2022.2.1,59.960378180551416,
0,135,y,m,135,5,13,93,7,,,,,,,,,,,150.7166442999951,150.7166442999951,150.7166442999951,150.7166442999951,150.7166442999951,m,1,0.5693366999985301,151.31220599999506,151.81993729999522,,,001,bia,2022-12-31_01h03.34.738,MentalRot,2022.2.1,59.960378180551416,
0,315,y,m,315,5,14,94,15,,,,,,,,,,,151.81993729999522,151.81993729999522,151.81993729999522,151.81993729999522,151.81993729999522,m,1,0.5700206000037724,152.41178759999457,152.91852339999605,,,001,bia,2022-12-31_01h03.34.738,MentalRot,2022.2.1,59.960378180551416,
0,315,n,n,315,5,15,95,14,,,,,,,,,,,152.91852339999605,152.91852339999605,152.91852339999605,152.91852339999605,152.91852339999605,n,1,0.5926569000002928,153.52840099999594,154.0340268,,,001,bia,2022-12-31_01h03.34.738,MentalRot,2022.2.1,59.960378180551416,
0,0,n,n,0,6,0,96,0,,,,,,,,,,,154.0340268,154.0340268,154.0340268,154.0340268,154.0340268,n,1,0.5318687000035425,154.59506419999525,155.10075779999897,,,001,bia,2022-12-31_01h03.34.738,MentalRot,2022.2.1,59.960378180551416,
0,135,n,n,135,6,1,97,6,,,,,,,,,,,155.10075779999897,155.10075779999897,155.10075779999897,155.10075779999897,155.10075779999897,n,1,0.5611149000033038,155.67826789999526,156.18404159999773,,,001,bia,2022-12-31_01h03.34.738,MentalRot,2022.2.1,59.960378180551416,
0,135,y,m,135,6,2,98,7,,,,,,,,,,,156.18404159999773,156.18404159999773,156.18404159999773,156.18404159999773,156.18404159999773,m,1,0.5660184000007575,156.77837449999788,157.28528749999532,,,001,bia,2022-12-31_01h03.34.738,MentalRot,2022.2.1,59.960378180551416,
0,90,y,m,90,6,3,99,5,,,,,,,,,,,157.28528749999532,157.28528749999532,157.28528749999532,157.28528749999532,157.28528749999532,m,1,0.5691197999985889,157.87846629999694,158.38700619999872,,,001,bia,2022-12-31_01h03.34.738,MentalRot,2022.2.1,59.960378180551416,
0,180,y,m,180,6,4,100,9,,,,,,,,,,,158.38700619999872,158.38700619999872,158.38700619999872,158.38700619999872,158.38700619999872,m,1,0.5558477000013227,158.96181989999604,159.46723999999813,,,001,bia,2022-12-31_01h03.34.738,MentalRot,2022.2.1,59.960378180551416,
0,270,n,n,270,6,5,101,12,,,,,,,,,,,159.46723999999813,159.46723999999813,159.46723999999813,159.46723999999813,159.46723999999813,m,0,0.5466288999959943,160.04471119999653,160.55102229999466,,,001,bia,2022-12-31_01h03.34.738,MentalRot,2022.2.1,59.960378180551416,
0,270,y,m,270,6,6,102,13,,,,,,,,,,,160.55102229999466,160.55102229999466,160.55102229999466,160.55102229999466,160.55102229999466,m,1,0.6475464999966789,161.2278695999994,161.73696270000073,,,001,bia,2022-12-31_01h03.34.738,MentalRot,2022.2.1,59.960378180551416,
0,45,n,n,45,6,7,103,2,,,,,,,,,,,161.73696270000073,161.73696270000073,161.73696270000073,161.73696270000073,161.73696270000073,n,1,0.5813217000031727,162.34470470000088,162.8483150999964,,,001,bia,2022-12-31_01h03.34.738,MentalRot,2022.2.1,59.960378180551416,
0,0,y,m,0,6,8,104,1,,,,,,,,,,,162.8483150999964,162.8483150999964,162.8483150999964,162.8483150999964,162.8483150999964,m,1,0.41529459999583196,163.29490299999452,163.79907269999967,,,001,bia,2022-12-31_01h03.34.738,MentalRot,2022.2.1,59.960378180551416,
0,225,y,m,225,6,9,105,11,,,,,,,,,,,163.79907269999967,163.79907269999967,163.79907269999967,163.79907269999967,163.79907269999967,m,1,0.7028163000068162,164.52770890000102,165.0343611999997,,,001,bia,2022-12-31_01h03.34.738,MentalRot,2022.2.1,59.960378180551416,
0,90,n,n,90,6,10,106,4,,,,,,,,,,,165.0343611999997,165.0343611999997,165.0343611999997,165.0343611999997,165.0343611999997,n,1,0.6441144999989774,165.69455889999517,166.20216519999667,,,001,bia,2022-12-31_01h03.34.738,MentalRot,2022.2.1,59.960378180551416,
0,45,y,m,45,6,11,107,3,,,,,,,,,,,166.20216519999667,166.20216519999667,166.20216519999667,166.20216519999667,166.20216519999667,m,1,0.4679586000056588,166.694345099997,167.20083679999516,,,001,bia,2022-12-31_01h03.34.738,MentalRot,2022.2.1,59.960378180551416,
0,180,n,n,180,6,12,108,8,,,,,,,,,,,167.20083679999516,167.20083679999516,167.20083679999516,167.20083679999516,167.20083679999516,n,1,0.893218600002001,168.11136619999888,168.62915029999567,,,001,bia,2022-12-31_01h03.34.738,MentalRot,2022.2.1,59.960378180551416,
0,315,y,m,315,6,13,109,15,,,,,,,,,,,168.62915029999567,168.62915029999567,168.62915029999567,168.62915029999567,168.62915029999567,m,1,0.5778769000025932,169.2279353999984,169.73194089999743,,,001,bia,2022-12-31_01h03.34.738,MentalRot,2022.2.1,59.960378180551416,
0,225,n,n,225,6,14,110,10,,,,,,,,,,,169.73194089999743,169.73194089999743,169.73194089999743,169.73194089999743,169.73194089999743,n,1,0.6026378000024124,170.36109149999538,170.86798599999747,,,001,bia,2022-12-31_01h03.34.738,MentalRot,2022.2.1,59.960378180551416,
0,315,n,n,315,6,15,111,14,,,,,,,,,,,170.86798599999747,170.86798599999747,170.86798599999747,170.86798599999747,170.86798599999747,n,1,0.49114060000283644,171.3777682,171.8844056999951,,,001,bia,2022-12-31_01h03.34.738,MentalRot,2022.2.1,59.960378180551416,
0,90,n,n,90,7,0,112,4,,,,,,,,,,,171.8844056999951,171.8844056999951,171.8844056999951,171.8844056999951,171.8844056999951,n,1,0.6339349000045331,172.54427739999664,173.0492890999958,,,001,bia,2022-12-31_01h03.34.738,MentalRot,2022.2.1,59.960378180551416,
0,270,y,m,270,7,1,113,13,,,,,,,,,,,173.0492890999958,173.0492890999958,173.0492890999958,173.0492890999958,173.0492890999958,n,0,0.5092356000022846,173.57751629999984,174.0778424999953,,,001,bia,2022-12-31_01h03.34.738,MentalRot,2022.2.1,59.960378180551416,
0,45,n,n,45,7,2,114,2,,,,,,,,,,,174.0778424999953,174.0778424999953,174.0778424999953,174.0778424999953,174.0778424999953,n,1,0.4803463999996893,174.57717969999794,175.0829930999971,,,001,bia,2022-12-31_01h03.34.738,MentalRot,2022.2.1,59.960378180551416,
0,270,n,n,270,7,3,115,12,,,,,,,,,,,175.0829930999971,175.0829930999971,175.0829930999971,175.0829930999971,175.0829930999971,n,1,0.6428382000012789,175.7441738999987,176.24714149999636,,,001,bia,2022-12-31_01h03.34.738,MentalRot,2022.2.1,59.960378180551416,
0,180,y,m,180,7,4,116,9,,,,,,,,,,,176.24714149999636,176.24714149999636,176.24714149999636,176.24714149999636,176.24714149999636,n,0,0.45574910000141244,176.72739659999934,177.23383349999494,,,001,bia,2022-12-31_01h03.34.738,MentalRot,2022.2.1,59.960378180551416,
0,135,n,n,135,7,5,117,6,,,,,,,,,,,177.23383349999494,177.23383349999494,177.23383349999494,177.23383349999494,177.23383349999494,n,1,0.7005167000024812,177.96086639999703,178.46711869999854,,,001,bia,2022-12-31_01h03.34.738,MentalRot,2022.2.1,59.960378180551416,
0,0,n,n,0,7,6,118,0,,,,,,,,,,,178.46711869999854,178.46711869999854,178.46711869999854,178.46711869999854,178.46711869999854,n,1,0.4988939999966533,178.9939263999986,179.50103479999962,,,001,bia,2022-12-31_01h03.34.738,MentalRot,2022.2.1,59.960378180551416,
0,135,y,m,135,7,7,119,7,,,,,,,,,,,179.50103479999962,179.50103479999962,179.50103479999962,179.50103479999962,179.50103479999962,m,1,0.6014520999960951,180.12719479999942,180.6348022999955,,,001,bia,2022-12-31_01h03.34.738,MentalRot,2022.2.1,59.960378180551416,
0,0,y,m,0,7,8,120,1,,,,,,,,,,,180.6348022999955,180.6348022999955,180.6348022999955,180.6348022999955,180.6348022999955,m,1,0.54730120000022,181.21077059999516,181.71794729999965,,,001,bia,2022-12-31_01h03.34.738,MentalRot,2022.2.1,59.960378180551416,
0,180,n,n,180,7,9,121,8,,,,,,,,,,,181.71794729999965,181.71794729999965,181.71794729999965,181.71794729999965,181.71794729999965,n,1,0.6160127999974065,182.36042059999454,182.86456719999842,,,001,bia,2022-12-31_01h03.34.738,MentalRot,2022.2.1,59.960378180551416,
0,90,y,m,90,7,10,122,5,,,,,,,,,,,182.86456719999842,182.86456719999842,182.86456719999842,182.86456719999842,182.86456719999842,m,1,0.5579198999985238,183.44370669999626,183.94951169999695,,,001,bia,2022-12-31_01h03.34.738,MentalRot,2022.2.1,59.960378180551416,
0,315,n,n,315,7,11,123,14,,,,,,,,,,,183.94951169999695,183.94951169999695,183.94951169999695,183.94951169999695,183.94951169999695,n,1,0.5372663000016473,184.5105856999944,185.01770029999898,,,001,bia,2022-12-31_01h03.34.738,MentalRot,2022.2.1,59.960378180551416,
0,315,y,m,315,7,12,124,15,,,,,,,,,,,185.01770029999898,185.01770029999898,185.01770029999898,185.01770029999898,185.01770029999898,m,1,0.5328500000032363,185.57706139999937,186.08288909999828,,,001,bia,2022-12-31_01h03.34.738,MentalRot,2022.2.1,59.960378180551416,
0,45,y,m,45,7,13,125,3,,,,,,,,,,,186.08288909999828,186.08288909999828,186.08288909999828,186.08288909999828,186.08288909999828,m,1,0.5314797000028193,186.64355369999976,187.14991399999417,,,001,bia,2022-12-31_01h03.34.738,MentalRot,2022.2.1,59.960378180551416,
0,225,n,n,225,7,14,126,10,,,,,,,,,,,187.14991399999417,187.14991399999417,187.14991399999417,187.14991399999417,187.14991399999417,n,1,0.6563141000005999,187.8268745999958,188.3339674999952,,,001,bia,2022-12-31_01h03.34.738,MentalRot,2022.2.1,59.960378180551416,
0,225,y,m,225,7,15,127,11,,,,,,,,,,,188.3339674999952,188.3339674999952,188.3339674999952,188.3339674999952,188.3339674999952,m,1,0.825011100001575,189.17684929999814,189.68284779999522,,,001,bia,2022-12-31_01h03.34.738,MentalRot,2022.2.1,59.960378180551416,
0,90,y,m,90,8,0,128,5,,,,,,,,,,,189.68284779999522,189.68284779999522,189.68284779999522,189.68284779999522,189.68284779999522,m,1,0.5153981999974349,190.22697969999717,190.73245609999867,,,001,bia,2022-12-31_01h03.34.738,MentalRot,2022.2.1,59.960378180551416,
0,135,n,n,135,8,1,129,6,,,,,,,,,,,190.73245609999867,190.73245609999867,190.73245609999867,190.73245609999867,190.73245609999867,n,1,1.1693834000034258,191.92709939999622,192.43331449999823,,,001,bia,2022-12-31_01h03.34.738,MentalRot,2022.2.1,59.960378180551416,
0,45,n,n,45,8,2,130,2,,,,,,,,,,,192.43331449999823,192.43331449999823,192.43331449999823,192.43331449999823,192.43331449999823,n,1,0.6371971999978996,193.09325859999808,193.60015700000076,,,001,bia,2022-12-31_01h03.34.738,MentalRot,2022.2.1,59.960378180551416,
0,315,y,m,315,8,3,131,15,,,,,,,,,,,193.60015700000076,193.60015700000076,193.60015700000076,193.60015700000076,193.60015700000076,m,1,0.543327200000931,194.16025850000005,194.66670169999998,,,001,bia,2022-12-31_01h03.34.738,MentalRot,2022.2.1,59.960378180551416,
0,90,n,n,90,8,4,132,4,,,,,,,,,,,194.66670169999998,194.66670169999998,194.66670169999998,194.66670169999998,194.66670169999998,n,1,0.659996800000954,195.34313549999933,195.84315409999544,,,001,bia,2022-12-31_01h03.34.738,MentalRot,2022.2.1,59.960378180551416,
0,315,n,n,315,8,5,133,14,,,,,,,,,,,195.84315409999544,195.84315409999544,195.84315409999544,195.84315409999544,195.84315409999544,n,1,0.57143619999988,196.4432136999967,196.95080049999524,,,001,bia,2022-12-31_01h03.34.738,MentalRot,2022.2.1,59.960378180551416,
0,225,n,n,225,8,6,134,10,,,,,,,,,,,196.95080049999524,196.95080049999524,196.95080049999524,196.95080049999524,196.95080049999524,n,1,0.6153031000067131,197.59347329999582,198.1033294999943,,,001,bia,2022-12-31_01h03.34.738,MentalRot,2022.2.1,59.960378180551416,
0,45,y,m,45,8,7,135,3,,,,,,,,,,,198.1033294999943,198.1033294999943,198.1033294999943,198.1033294999943,198.1033294999943,m,1,0.49483150000014575,198.62671539999428,199.13115139999718,,,001,bia,2022-12-31_01h03.34.738,MentalRot,2022.2.1,59.960378180551416,
0,0,n,n,0,8,8,136,0,,,,,,,,,,,199.13115139999718,199.13115139999718,199.13115139999718,199.13115139999718,199.13115139999718,n,1,0.49892240000190213,199.65973880000092,200.1662378999972,,,001,bia,2022-12-31_01h03.34.738,MentalRot,2022.2.1,59.960378180551416,
0,180,y,m,180,8,9,137,9,,,,,,,,,,,200.1662378999972,200.1662378999972,200.1662378999972,200.1662378999972,200.1662378999972,m,1,0.5839459999988321,200.77641069999663,201.2824871999983,,,001,bia,2022-12-31_01h03.34.738,MentalRot,2022.2.1,59.960378180551416,
0,225,y,m,225,8,10,138,11,,,,,,,,,,,201.2824871999983,201.2824871999983,201.2824871999983,201.2824871999983,201.2824871999983,m,1,0.8356679999997141,202.14313659999607,202.64816549999523,,,001,bia,2022-12-31_01h03.34.738,MentalRot,2022.2.1,59.960378180551416,
0,135,y,m,135,8,11,139,7,,,,,,,,,,,202.64816549999523,202.64816549999523,202.64816549999523,202.64816549999523,202.64816549999523,m,1,0.501825799998187,203.17607889999636,203.68581299999641,,,001,bia,2022-12-31_01h03.34.738,MentalRot,2022.2.1,59.960378180551416,
0,0,y,m,0,8,12,140,1,,,,,,,,,,,203.68581299999641,203.68581299999641,203.68581299999641,203.68581299999641,203.68581299999641,m,1,0.6177649000019301,204.32606599999417,204.83510269999533,,,001,bia,2022-12-31_01h03.34.738,MentalRot,2022.2.1,59.960378180551416,
0,270,y,m,270,8,13,141,13,,,,,,,,,,,204.83510269999533,204.83510269999533,204.83510269999533,204.83510269999533,204.83510269999533,m,1,0.707247099999222,205.5594762999972,206.05980519999866,,,001,bia,2022-12-31_01h03.34.738,MentalRot,2022.2.1,59.960378180551416,
0,270,n,n,270,8,14,142,12,,,,,,,,,,,206.05980519999866,206.05980519999866,206.05980519999866,206.05980519999866,206.05980519999866,n,1,0.6987427000058233,206.775833599997,207.28014779999648,,,001,bia,2022-12-31_01h03.34.738,MentalRot,2022.2.1,59.960378180551416,
0,180,n,n,180,8,15,143,8,,,,,,,,,,,207.28014779999648,207.28014779999648,207.28014779999648,207.28014779999648,207.28014779999648,n,1,0.9098446000061813,208.20900779999647,208.71274289999565,,,001,bia,2022-12-31_01h03.34.738,MentalRot,2022.2.1,59.960378180551416,
0,180,n,n,180,9,0,144,8,,,,,,,,,,,208.71274289999565,208.71274289999565,208.71274289999565,208.71274289999565,208.71274289999565,n,1,0.6051721000039834,209.3425980999964,209.84741199999553,,,001,bia,2022-12-31_01h03.34.738,MentalRot,2022.2.1,59.960378180551416,
0,90,y,m,90,9,1,145,5,,,,,,,,,,,209.84741199999553,209.84741199999553,209.84741199999553,209.84741199999553,209.84741199999553,m,1,0.5263883000006899,210.39329349999753,210.90001089999714,,,001,bia,2022-12-31_01h03.34.738,MentalRot,2022.2.1,59.960378180551416,
0,135,n,n,135,9,2,146,6,,,,,,,,,,,210.90001089999714,210.90001089999714,210.90001089999714,210.90001089999714,210.90001089999714,n,1,0.6260436000011396,211.5425277999966,212.0512407999995,,,001,bia,2022-12-31_01h03.34.738,MentalRot,2022.2.1,59.960378180551416,
0,90,n,n,90,9,3,147,4,,,,,,,,,,,212.0512407999995,212.0512407999995,212.0512407999995,212.0512407999995,212.0512407999995,n,1,0.6353965000016615,212.7090834999981,213.2163170999993,,,001,bia,2022-12-31_01h03.34.738,MentalRot,2022.2.1,59.960378180551416,
0,270,n,n,270,9,4,148,12,,,,,,,,,,,213.2163170999993,213.2163170999993,213.2163170999993,213.2163170999993,213.2163170999993,n,1,0.5575171999953454,213.79240589999972,214.30062519999774,,,001,bia,2022-12-31_01h03.34.738,MentalRot,2022.2.1,59.960378180551416,
0,45,y,m,45,9,5,149,3,,,,,,,,,,,214.30062519999774,214.30062519999774,214.30062519999774,214.30062519999774,214.30062519999774,m,1,0.43394350000016857,214.7591115999967,215.267285599999,,,001,bia,2022-12-31_01h03.34.738,MentalRot,2022.2.1,59.960378180551416,
0,45,n,n,45,9,6,150,2,,,,,,,,,,,215.267285599999,215.267285599999,215.267285599999,215.267285599999,215.267285599999,n,1,0.6030667000013636,215.892285599999,216.3979302999942,,,001,bia,2022-12-31_01h03.34.738,MentalRot,2022.2.1,59.960378180551416,
0,270,y,m,270,9,7,151,13,,,,,,,,,,,216.3979302999942,216.3979302999942,216.3979302999942,216.3979302999942,216.3979302999942,m,1,0.6568509000062477,217.07549719999952,217.58154539999668,,,001,bia,2022-12-31_01h03.34.738,MentalRot,2022.2.1,59.960378180551416,
0,180,y,m,180,9,8,152,9,,,,,,,,,,,217.58154539999668,217.58154539999668,217.58154539999668,217.58154539999668,217.58154539999668,m,1,0.5764250000065658,218.17548939999688,218.68055959999765,,,001,bia,2022-12-31_01h03.34.738,MentalRot,2022.2.1,59.960378180551416,
0,315,y,m,315,9,9,153,15,,,,,,,,,,,218.68055959999765,218.68055959999765,218.68055959999765,218.68055959999765,218.68055959999765,m,1,0.5501714999991236,219.25877309999487,219.76374450000003,,,001,bia,2022-12-31_01h03.34.738,MentalRot,2022.2.1,59.960378180551416,
0,0,y,m,0,9,10,154,1,,,,,,,,,,,219.76374450000003,219.76374450000003,219.76374450000003,219.76374450000003,219.76374450000003,m,1,0.5146189000006416,220.30897959999857,220.81543599999713,,,001,bia,2022-12-31_01h03.34.738,MentalRot,2022.2.1,59.960378180551416,
0,315,n,n,315,9,11,155,14,,,,,,,,,,,220.81543599999713,220.81543599999713,220.81543599999713,220.81543599999713,220.81543599999713,n,1,0.49571080000168877,221.3423266999962,221.8482784000007,,,001,bia,2022-12-31_01h03.34.738,MentalRot,2022.2.1,59.960378180551416,
0,225,y,m,225,9,12,156,11,,,,,,,,,,,221.8482784000007,221.8482784000007,221.8482784000007,221.8482784000007,221.8482784000007,n,0,0.533927999997104,222.40857369999867,222.91508909999538,,,001,bia,2022-12-31_01h03.34.738,MentalRot,2022.2.1,59.960378180551416,
0,0,n,n,0,9,13,157,0,,,,,,,,,,,222.91508909999538,222.91508909999538,222.91508909999538,222.91508909999538,222.91508909999538,n,1,0.6671419000049355,223.6085596999983,224.11451689999376,,,001,bia,2022-12-31_01h03.34.738,MentalRot,2022.2.1,59.960378180551416,
0,135,y,m,135,9,14,158,7,,,,,,,,,,,224.11451689999376,224.11451689999376,224.11451689999376,224.11451689999376,224.11451689999376,m,1,0.5241110999995726,224.65884630000073,225.1637081000008,,,001,bia,2022-12-31_01h03.34.738,MentalRot,2022.2.1,59.960378180551416,
0,225,n,n,225,9,15,159,10,,,,,,,,,,,225.1637081000008,225.1637081000008,225.1637081000008,225.1637081000008,225.1637081000008,n,1,0.5944091000055778,225.77550009999686,226.27515769999445,,,001,bia,2022-12-31_01h03.34.738,MentalRot,2022.2.1,59.960378180551416,
,,,,,,,,,,,,,,,,,,,,,,,,,,,,,226.27515769999445,226.27515769999445,,,,,,,
