leftori,rightori,same,corrAns,angle,trials.thisRepN,trials.thisTrialN,trials.thisN,trials.thisIndex,instr_txt_1.started,instr_key_1.started,instr_key_1.keys,instr_key_1.rt,image_L_3.started,image_R_3.started,instr_txt_2.started,instr_key_2.started,mini_pause_2.started,mini_pause_2.stopped,image_L.started,image_R.started,response.started,main_instr.started,trial_count.started,response.keys,response.corr,response.rt,mini_pause.started,mini_pause.stopped,end_txt.started,end_key.started,session,participant,date,expName,psychopyVersion,frameRate,
,,,,,,,,,18.78795839999657,18.78795839999657,m,0.8294480000040494,,,,,,,,,,,,,,,,,,,001,davi,2022-12-31_01h23.27.650,MentalRot,2022.2.1,59.72317115754307,
0,90,n,n,90,0,0,0,4,,,,,19.725366899998335,19.725366899998335,19.725366899998335,19.725366899998335,20.224489399995946,21.747701499996765,21.747701499996765,21.747701499996765,21.747701499996765,21.747701499996765,21.747701499996765,n,1,0.8767743999997037,22.640581799998472,23.14874669999699,,,001,davi,2022-12-31_01h23.27.650,MentalRot,2022.2.1,59.72317115754307,
0,0,n,n,0,0,1,1,0,,,,,,,,,,,23.14874669999699,23.14874669999699,23.14874669999699,23.14874669999699,23.14874669999699,n,1,0.5798992000054568,23.75717319999967,24.267591599993466,,,001,davi,2022-12-31_01h23.27.650,MentalRot,2022.2.1,59.72317115754307,
0,315,y,m,315,0,2,2,15,,,,,,,,,,,24.267591599993466,24.267591599993466,24.267591599993466,24.267591599993466,24.267591599993466,m,1,0.5093328000075417,24.807723999998416,25.314719199996034,,,001,davi,2022-12-31_01h23.27.650,MentalRot,2022.2.1,59.72317115754307,
0,225,y,m,225,0,3,3,11,,,,,,,,,,,25.314719199996034,25.314719199996034,25.314719199996034,25.314719199996034,25.314719199996034,m,1,0.6310528000030899,25.973760499997297,26.481498199995258,,,001,davi,2022-12-31_01h23.27.650,MentalRot,2022.2.1,59.72317115754307,
0,135,y,m,135,0,4,4,7,,,,,,,,,,,26.481498199995258,26.481498199995258,26.481498199995258,26.481498199995258,26.481498199995258,m,1,0.5678685000020778,27.074094099996728,27.58135379999294,,,001,davi,2022-12-31_01h23.27.650,MentalRot,2022.2.1,59.72317115754307,
0,180,y,m,180,0,5,5,9,,,,,,,,,,,27.58135379999294,27.58135379999294,27.58135379999294,27.58135379999294,27.58135379999294,m,1,0.5630701000045519,28.174169599995366,28.68214729999454,,,001,davi,2022-12-31_01h23.27.650,MentalRot,2022.2.1,59.72317115754307,
0,270,y,m,270,0,6,6,13,,,,,,,,,,,28.68214729999454,28.68214729999454,28.68214729999454,28.68214729999454,28.68214729999454,m,1,0.5103688000017428,29.223692699997628,29.73739669999486,,,001,davi,2022-12-31_01h23.27.650,MentalRot,2022.2.1,59.72317115754307,
0,90,y,m,90,0,7,7,5,,,,,,,,,,,29.73739669999486,29.73739669999486,29.73739669999486,29.73739669999486,29.73739669999486,m,1,0.5270173000026261,30.290223699994385,30.798374299993156,,,001,davi,2022-12-31_01h23.27.650,MentalRot,2022.2.1,59.72317115754307,
0,225,n,n,225,0,8,8,10,,,,,,,,,,,30.798374299993156,30.798374299993156,30.798374299993156,30.798374299993156,30.798374299993156,n,1,0.7383597000007285,31.55690979999781,32.067173499999626,,,001,davi,2022-12-31_01h23.27.650,MentalRot,2022.2.1,59.72317115754307,
0,0,y,m,0,0,9,9,1,,,,,,,,,,,32.067173499999626,32.067173499999626,32.067173499999626,32.067173499999626,32.067173499999626,m,1,0.4054078999979538,32.4903137999936,32.9980035999979,,,001,davi,2022-12-31_01h23.27.650,MentalRot,2022.2.1,59.72317115754307,
0,270,n,n,270,0,10,10,12,,,,,,,,,,,32.9980035999979,32.9980035999979,32.9980035999979,32.9980035999979,32.9980035999979,n,1,0.6427298999988125,33.65686049999931,34.1619561999978,,,001,davi,2022-12-31_01h23.27.650,MentalRot,2022.2.1,59.72317115754307,
0,135,n,n,135,0,11,11,6,,,,,,,,,,,34.1619561999978,34.1619561999978,34.1619561999978,34.1619561999978,34.1619561999978,n,1,0.6306569000007585,34.823259599994344,35.326770699997724,,,001,davi,2022-12-31_01h23.27.650,MentalRot,2022.2.1,59.72317115754307,
0,45,y,m,45,0,12,12,3,,,,,,,,,,,35.326770699997724,35.326770699997724,35.326770699997724,35.326770699997724,35.326770699997724,m,1,0.5460171000013361,35.8897222999949,36.39009819999774,,,001,davi,2022-12-31_01h23.27.650,MentalRot,2022.2.1,59.72317115754307,
0,180,n,n,180,0,13,13,8,,,,,,,,,,,36.39009819999774,36.39009819999774,36.39009819999774,36.39009819999774,36.39009819999774,n,1,0.7300474000003305,37.14058149999619,37.64197169999534,,,001,davi,2022-12-31_01h23.27.650,MentalRot,2022.2.1,59.72317115754307,
0,45,n,n,45,0,14,14,2,,,,,,,,,,,37.64197169999534,37.64197169999534,37.64197169999534,37.64197169999534,37.64197169999534,n,1,0.5032117000009748,38.173366699993494,38.68087669999659,,,001,davi,2022-12-31_01h23.27.650,MentalRot,2022.2.1,59.72317115754307,
0,315,n,n,315,0,15,15,14,,,,,,,,,,,38.68087669999659,38.68087669999659,38.68087669999659,38.68087669999659,38.68087669999659,n,1,0.86436450000474,39.5736151999954,40.07938649999414,,,001,davi,2022-12-31_01h23.27.650,MentalRot,2022.2.1,59.72317115754307,
0,45,y,m,45,1,0,16,3,,,,,,,,,,,40.07938649999414,40.07938649999414,40.07938649999414,40.07938649999414,40.07938649999414,m,1,0.47354210000048624,40.573306799997226,41.08160219999991,,,001,davi,2022-12-31_01h23.27.650,MentalRot,2022.2.1,59.72317115754307,
0,180,n,n,180,1,1,17,8,,,,,,,,,,,41.08160219999991,41.08160219999991,41.08160219999991,41.08160219999991,41.08160219999991,n,1,0.7505795000033686,41.8565998999984,42.36518879999494,,,001,davi,2022-12-31_01h23.27.650,MentalRot,2022.2.1,59.72317115754307,
0,270,y,m,270,1,2,18,13,,,,,,,,,,,42.36518879999494,42.36518879999494,42.36518879999494,42.36518879999494,42.36518879999494,n,0,0.4921948000046541,42.87288109999645,43.38099379999767,,,001,davi,2022-12-31_01h23.27.650,MentalRot,2022.2.1,59.72317115754307,
0,315,y,m,315,1,3,19,15,,,,,,,,,,,43.38099379999767,43.38099379999767,43.38099379999767,43.38099379999767,43.38099379999767,m,1,0.5245302000039374,43.92297499999404,44.43413169999985,,,001,davi,2022-12-31_01h23.27.650,MentalRot,2022.2.1,59.72317115754307,
0,135,n,n,135,1,4,20,6,,,,,,,,,,,44.43413169999985,44.43413169999985,44.43413169999985,44.43413169999985,44.43413169999985,n,1,0.5991501000025892,45.05636349999986,45.56522199999745,,,001,davi,2022-12-31_01h23.27.650,MentalRot,2022.2.1,59.72317115754307,
0,0,y,m,0,1,5,21,1,,,,,,,,,,,45.56522199999745,45.56522199999745,45.56522199999745,45.56522199999745,45.56522199999745,m,1,0.4199073999989196,46.00634779999382,46.51511079999909,,,001,davi,2022-12-31_01h23.27.650,MentalRot,2022.2.1,59.72317115754307,
0,225,y,m,225,1,6,22,11,,,,,,,,,,,46.51511079999909,46.51511079999909,46.51511079999909,46.51511079999909,46.51511079999909,n,0,0.5334593999941717,47.073312999993504,47.58031819999451,,,001,davi,2022-12-31_01h23.27.650,MentalRot,2022.2.1,59.72317115754307,
0,0,n,n,0,1,7,23,0,,,,,,,,,,,47.58031819999451,47.58031819999451,47.58031819999451,47.58031819999451,47.58031819999451,n,1,0.5729093000045395,48.17275799999334,48.680560299995705,,,001,davi,2022-12-31_01h23.27.650,MentalRot,2022.2.1,59.72317115754307,
0,90,n,n,90,1,8,24,4,,,,,,,,,,,48.680560299995705,48.680560299995705,48.680560299995705,48.680560299995705,48.680560299995705,n,1,0.5920842999985325,49.28972829999839,49.7967628999977,,,001,davi,2022-12-31_01h23.27.650,MentalRot,2022.2.1,59.72317115754307,
0,315,n,n,315,1,9,25,14,,,,,,,,,,,49.7967628999977,49.7967628999977,49.7967628999977,49.7967628999977,49.7967628999977,n,1,0.5563713000010466,50.37305039999774,50.87872399999469,,,001,davi,2022-12-31_01h23.27.650,MentalRot,2022.2.1,59.72317115754307,
0,90,y,m,90,1,10,26,5,,,,,,,,,,,50.87872399999469,50.87872399999469,50.87872399999469,50.87872399999469,50.87872399999469,m,1,0.5776656000016374,51.47259309999936,51.97982950000005,,,001,davi,2022-12-31_01h23.27.650,MentalRot,2022.2.1,59.72317115754307,
0,225,n,n,225,1,11,27,10,,,,,,,,,,,51.97982950000005,51.97982950000005,51.97982950000005,51.97982950000005,51.97982950000005,n,1,0.9175833999979659,52.922921899997164,53.42957169999863,,,001,davi,2022-12-31_01h23.27.650,MentalRot,2022.2.1,59.72317115754307,
0,135,y,m,135,1,12,28,7,,,,,,,,,,,53.42957169999863,53.42957169999863,53.42957169999863,53.42957169999863,53.42957169999863,m,1,0.6030534000019543,54.05567329999758,54.564284499996575,,,001,davi,2022-12-31_01h23.27.650,MentalRot,2022.2.1,59.72317115754307,
0,180,y,m,180,1,13,29,9,,,,,,,,,,,54.564284499996575,54.564284499996575,54.564284499996575,54.564284499996575,54.564284499996575,m,1,0.652470799999719,55.23912879999989,55.74734749999334,,,001,davi,2022-12-31_01h23.27.650,MentalRot,2022.2.1,59.72317115754307,
0,45,n,n,45,1,14,30,2,,,,,,,,,,,55.74734749999334,55.74734749999334,55.74734749999334,55.74734749999334,55.74734749999334,n,1,0.5579486999995424,56.32276099999581,56.82502569999633,,,001,davi,2022-12-31_01h23.27.650,MentalRot,2022.2.1,59.72317115754307,
0,270,n,n,270,1,15,31,12,,,,,,,,,,,56.82502569999633,56.82502569999633,56.82502569999633,56.82502569999633,56.82502569999633,n,1,0.6397978000022704,57.48900099999446,57.99815909999597,,,001,davi,2022-12-31_01h23.27.650,MentalRot,2022.2.1,59.72317115754307,
0,180,n,n,180,2,0,32,8,,,,,,,,,,,57.99815909999597,57.99815909999597,57.99815909999597,57.99815909999597,57.99815909999597,n,1,0.7219802999970852,58.73913409999659,59.24669059999724,,,001,davi,2022-12-31_01h23.27.650,MentalRot,2022.2.1,59.72317115754307,
0,180,y,m,180,2,1,33,9,,,,,,,,,,,59.24669059999724,59.24669059999724,59.24669059999724,59.24669059999724,59.24669059999724,m,1,0.7458173999984865,60.02206819999992,60.531002499999886,,,001,davi,2022-12-31_01h23.27.650,MentalRot,2022.2.1,59.72317115754307,
0,270,n,n,270,2,2,34,12,,,,,,,,,,,60.531002499999886,60.531002499999886,60.531002499999886,60.531002499999886,60.531002499999886,n,1,0.6548027000026195,61.20531879999908,61.71276369999396,,,001,davi,2022-12-31_01h23.27.650,MentalRot,2022.2.1,59.72317115754307,
0,90,n,n,90,2,3,35,4,,,,,,,,,,,61.71276369999396,61.71276369999396,61.71276369999396,61.71276369999396,61.71276369999396,n,1,0.7766879000046174,62.50600459999987,63.01169349999691,,,001,davi,2022-12-31_01h23.27.650,MentalRot,2022.2.1,59.72317115754307,
0,315,y,m,315,2,4,36,15,,,,,,,,,,,63.01169349999691,63.01169349999691,63.01169349999691,63.01169349999691,63.01169349999691,m,1,0.4697063999992679,63.50591659999918,64.01494109999476,,,001,davi,2022-12-31_01h23.27.650,MentalRot,2022.2.1,59.72317115754307,
0,135,y,m,135,2,5,37,7,,,,,,,,,,,64.01494109999476,64.01494109999476,64.01494109999476,64.01494109999476,64.01494109999476,m,1,0.6339095000002999,64.67196719999629,65.1782131,,,001,davi,2022-12-31_01h23.27.650,MentalRot,2022.2.1,59.72317115754307,
0,45,y,m,45,2,6,38,3,,,,,,,,,,,65.1782131,65.1782131,65.1782131,65.1782131,65.1782131,m,1,0.5274362999989535,65.72195509999437,66.22896789999504,,,001,davi,2022-12-31_01h23.27.650,MentalRot,2022.2.1,59.72317115754307,
0,45,n,n,45,2,7,39,2,,,,,,,,,,,66.22896789999504,66.22896789999504,66.22896789999504,66.22896789999504,66.22896789999504,n,1,0.5311997999961022,66.78856029999588,67.29486069999984,,,001,davi,2022-12-31_01h23.27.650,MentalRot,2022.2.1,59.72317115754307,
0,90,y,m,90,2,8,40,5,,,,,,,,,,,67.29486069999984,67.29486069999984,67.29486069999984,67.29486069999984,67.29486069999984,m,1,0.4898596000057296,67.80516469999566,68.31125400000019,,,001,davi,2022-12-31_01h23.27.650,MentalRot,2022.2.1,59.72317115754307,
0,315,n,n,315,2,9,41,14,,,,,,,,,,,68.31125400000019,68.31125400000019,68.31125400000019,68.31125400000019,68.31125400000019,n,1,0.5136671000000206,68.85518059999595,69.3635798999967,,,001,davi,2022-12-31_01h23.27.650,MentalRot,2022.2.1,59.72317115754307,
0,0,y,m,0,2,10,42,1,,,,,,,,,,,69.3635798999967,69.3635798999967,69.3635798999967,69.3635798999967,69.3635798999967,m,1,0.4613261999984388,69.85514499999408,70.36343879999913,,,001,davi,2022-12-31_01h23.27.650,MentalRot,2022.2.1,59.72317115754307,
0,135,n,n,135,2,11,43,6,,,,,,,,,,,70.36343879999913,70.36343879999913,70.36343879999913,70.36343879999913,70.36343879999913,n,1,0.7088734999997541,71.08888199999637,71.59674399999494,,,001,davi,2022-12-31_01h23.27.650,MentalRot,2022.2.1,59.72317115754307,
0,270,y,m,270,2,12,44,13,,,,,,,,,,,71.59674399999494,71.59674399999494,71.59674399999494,71.59674399999494,71.59674399999494,m,1,0.5883621000029962,72.20532109999476,72.71515829999407,,,001,davi,2022-12-31_01h23.27.650,MentalRot,2022.2.1,59.72317115754307,
0,225,n,n,225,2,13,45,10,,,,,,,,,,,72.71515829999407,72.71515829999407,72.71515829999407,72.71515829999407,72.71515829999407,n,1,0.5812509000024875,73.32167499999923,73.82741079999687,,,001,davi,2022-12-31_01h23.27.650,MentalRot,2022.2.1,59.72317115754307,
0,225,y,m,225,2,14,46,11,,,,,,,,,,,73.82741079999687,73.82741079999687,73.82741079999687,73.82741079999687,73.82741079999687,m,1,0.7495590999969863,74.60505099999864,75.10598259999824,,,001,davi,2022-12-31_01h23.27.650,MentalRot,2022.2.1,59.72317115754307,
0,0,n,n,0,2,15,47,0,,,,,,,,,,,75.10598259999824,75.10598259999824,75.10598259999824,75.10598259999824,75.10598259999824,n,1,0.630097500004922,75.75466649999726,76.26552839999931,,,001,davi,2022-12-31_01h23.27.650,MentalRot,2022.2.1,59.72317115754307,
0,0,n,n,0,3,0,48,0,,,,,,,,,,,76.26552839999931,76.26552839999931,76.26552839999931,76.26552839999931,76.26552839999931,n,1,0.479585599998245,76.77171219999582,77.27920179999637,,,001,davi,2022-12-31_01h23.27.650,MentalRot,2022.2.1,59.72317115754307,
0,270,y,m,270,3,1,49,13,,,,,,,,,,,77.27920179999637,77.27920179999637,77.27920179999637,77.27920179999637,77.27920179999637,m,1,0.5449130999986664,77.85508259999915,78.3613733999955,,,001,davi,2022-12-31_01h23.27.650,MentalRot,2022.2.1,59.72317115754307,
0,45,n,n,45,3,2,50,2,,,,,,,,,,,78.3613733999955,78.3613733999955,78.3613733999955,78.3613733999955,78.3613733999955,n,1,0.5354452000028687,78.92161739999574,79.43005149999954,,,001,davi,2022-12-31_01h23.27.650,MentalRot,2022.2.1,59.72317115754307,
0,90,y,m,90,3,3,51,5,,,,,,,,,,,79.43005149999954,79.43005149999954,79.43005149999954,79.43005149999954,79.43005149999954,m,1,0.5634494000041741,80.02155809999385,80.52917049999814,,,001,davi,2022-12-31_01h23.27.650,MentalRot,2022.2.1,59.72317115754307,
0,0,y,m,0,3,4,52,1,,,,,,,,,,,80.52917049999814,80.52917049999814,80.52917049999814,80.52917049999814,80.52917049999814,m,1,0.5271969000023091,81.08832239999902,81.59499519999372,,,001,davi,2022-12-31_01h23.27.650,MentalRot,2022.2.1,59.72317115754307,
0,45,y,m,45,3,5,53,3,,,,,,,,,,,81.59499519999372,81.59499519999372,81.59499519999372,81.59499519999372,81.59499519999372,m,1,0.4781280000024708,82.10493859999406,82.61198489999515,,,001,davi,2022-12-31_01h23.27.650,MentalRot,2022.2.1,59.72317115754307,
0,180,y,m,180,3,6,54,9,,,,,,,,,,,82.61198489999515,82.61198489999515,82.61198489999515,82.61198489999515,82.61198489999515,m,1,0.6688152999995509,83.3051059999998,83.81158270000014,,,001,davi,2022-12-31_01h23.27.650,MentalRot,2022.2.1,59.72317115754307,
0,135,n,n,135,3,7,55,6,,,,,,,,,,,83.81158270000014,83.81158270000014,83.81158270000014,83.81158270000014,83.81158270000014,n,1,0.5732289000006858,84.40475129999686,84.91296539999894,,,001,davi,2022-12-31_01h23.27.650,MentalRot,2022.2.1,59.72317115754307,
0,90,n,n,90,3,8,56,4,,,,,,,,,,,84.91296539999894,84.91296539999894,84.91296539999894,84.91296539999894,84.91296539999894,n,1,0.5831816999998409,85.52119679999305,86.02762229999644,,,001,davi,2022-12-31_01h23.27.650,MentalRot,2022.2.1,59.72317115754307,
0,135,y,m,135,3,9,57,7,,,,,,,,,,,86.02762229999644,86.02762229999644,86.02762229999644,86.02762229999644,86.02762229999644,m,1,0.5725935000009486,86.62115769999946,87.12818499999412,,,001,davi,2022-12-31_01h23.27.650,MentalRot,2022.2.1,59.72317115754307,
0,315,n,n,315,3,10,58,14,,,,,,,,,,,87.12818499999412,87.12818499999412,87.12818499999412,87.12818499999412,87.12818499999412,m,0,0.4886534999968717,87.63777679999475,88.14699569999357,,,001,davi,2022-12-31_01h23.27.650,MentalRot,2022.2.1,59.72317115754307,
0,225,y,m,225,3,11,59,11,,,,,,,,,,,88.14699569999357,88.14699569999357,88.14699569999357,88.14699569999357,88.14699569999357,m,1,0.5817250000036438,88.75460679999378,89.26594099999784,,,001,davi,2022-12-31_01h23.27.650,MentalRot,2022.2.1,59.72317115754307,
0,315,y,m,315,3,12,60,15,,,,,,,,,,,89.26594099999784,89.26594099999784,89.26594099999784,89.26594099999784,89.26594099999784,m,1,0.5990807999987737,89.88759699999355,90.39488969999366,,,001,davi,2022-12-31_01h23.27.650,MentalRot,2022.2.1,59.72317115754307,
0,225,n,n,225,3,13,61,10,,,,,,,,,,,90.39488969999366,90.39488969999366,90.39488969999366,90.39488969999366,90.39488969999366,n,1,0.7736430000004475,91.18766269999469,91.69457859999966,,,001,davi,2022-12-31_01h23.27.650,MentalRot,2022.2.1,59.72317115754307,
0,270,n,n,270,3,14,62,12,,,,,,,,,,,91.69457859999966,91.69457859999966,91.69457859999966,91.69457859999966,91.69457859999966,n,1,0.5783490000030724,92.30393199999526,92.81297189999896,,,001,davi,2022-12-31_01h23.27.650,MentalRot,2022.2.1,59.72317115754307,
0,180,n,n,180,3,15,63,8,,,,,,,,,,,92.81297189999896,92.81297189999896,92.81297189999896,92.81297189999896,92.81297189999896,n,1,0.6362207000056515,93.47066749999794,93.97783859999618,,,001,davi,2022-12-31_01h23.27.650,MentalRot,2022.2.1,59.72317115754307,
0,315,y,m,315,4,0,64,15,,,,,,,,,,,93.97783859999618,93.97783859999618,93.97783859999618,93.97783859999618,93.97783859999618,m,1,0.47111820000282023,94.47112919999927,94.97913729999709,,,001,davi,2022-12-31_01h23.27.650,MentalRot,2022.2.1,59.72317115754307,
0,225,y,m,225,4,1,65,11,,,,,,,,,,,94.97913729999709,94.97913729999709,94.97913729999709,94.97913729999709,94.97913729999709,n,0,0.7492084000041359,95.75409419999778,96.26260719999846,,,001,davi,2022-12-31_01h23.27.650,MentalRot,2022.2.1,59.72317115754307,
0,225,n,n,225,4,2,66,10,,,,,,,,,,,96.26260719999846,96.26260719999846,96.26260719999846,96.26260719999846,96.26260719999846,n,1,0.5701390000031097,96.85393449999538,97.36035389999597,,,001,davi,2022-12-31_01h23.27.650,MentalRot,2022.2.1,59.72317115754307,
0,90,y,m,90,4,3,67,5,,,,,,,,,,,97.36035389999597,97.36035389999597,97.36035389999597,97.36035389999597,97.36035389999597,m,1,0.5680741000032867,97.9543726999982,98.4632222999935,,,001,davi,2022-12-31_01h23.27.650,MentalRot,2022.2.1,59.72317115754307,
0,180,n,n,180,4,4,68,8,,,,,,,,,,,98.4632222999935,98.4632222999935,98.4632222999935,98.4632222999935,98.4632222999935,n,1,0.6742279000027338,99.15386690000014,99.66163689999667,,,001,davi,2022-12-31_01h23.27.650,MentalRot,2022.2.1,59.72317115754307,
0,45,n,n,45,4,5,69,2,,,,,,,,,,,99.66163689999667,99.66163689999667,99.66163689999667,99.66163689999667,99.66163689999667,n,1,0.6197450999970897,100.30386129999533,100.81316819999483,,,001,davi,2022-12-31_01h23.27.650,MentalRot,2022.2.1,59.72317115754307,
0,270,y,m,270,4,6,70,13,,,,,,,,,,,100.81316819999483,100.81316819999483,100.81316819999483,100.81316819999483,100.81316819999483,m,1,0.5950650000013411,101.43730919999507,101.94644489999337,,,001,davi,2022-12-31_01h23.27.650,MentalRot,2022.2.1,59.72317115754307,
0,0,n,n,0,4,7,71,0,,,,,,,,,,,101.94644489999337,101.94644489999337,101.94644489999337,101.94644489999337,101.94644489999337,n,1,0.5188599999964936,102.48741939999309,102.98820999999589,,,001,davi,2022-12-31_01h23.27.650,MentalRot,2022.2.1,59.72317115754307,
0,45,y,m,45,4,8,72,3,,,,,,,,,,,102.98820999999589,102.98820999999589,102.98820999999589,102.98820999999589,102.98820999999589,m,1,0.5177532000016072,103.53684179999982,104.04200309999578,,,001,davi,2022-12-31_01h23.27.650,MentalRot,2022.2.1,59.72317115754307,
0,180,y,m,180,4,9,73,9,,,,,,,,,,,104.04200309999578,104.04200309999578,104.04200309999578,104.04200309999578,104.04200309999578,m,1,0.7276087999998708,104.78670049999346,105.28708399999596,,,001,davi,2022-12-31_01h23.27.650,MentalRot,2022.2.1,59.72317115754307,
0,135,y,m,135,4,10,74,7,,,,,,,,,,,105.28708399999596,105.28708399999596,105.28708399999596,105.28708399999596,105.28708399999596,m,1,0.7782265999994706,106.08723939999618,106.5999343999938,,,001,davi,2022-12-31_01h23.27.650,MentalRot,2022.2.1,59.72317115754307,
0,0,y,m,0,4,11,75,1,,,,,,,,,,,106.5999343999938,106.5999343999938,106.5999343999938,106.5999343999938,106.5999343999938,m,1,0.520444599998882,107.13691619999736,107.64175869999599,,,001,davi,2022-12-31_01h23.27.650,MentalRot,2022.2.1,59.72317115754307,
0,135,n,n,135,4,12,76,6,,,,,,,,,,,107.64175869999599,107.64175869999599,107.64175869999599,107.64175869999599,107.64175869999599,n,1,0.630969500001811,108.30356349999784,108.80987939999613,,,001,davi,2022-12-31_01h23.27.650,MentalRot,2022.2.1,59.72317115754307,
0,270,n,n,270,4,13,77,12,,,,,,,,,,,108.80987939999613,108.80987939999613,108.80987939999613,108.80987939999613,108.80987939999613,n,1,0.6707441000035033,109.50353309999628,110.00972409999667,,,001,davi,2022-12-31_01h23.27.650,MentalRot,2022.2.1,59.72317115754307,
0,90,n,n,90,4,14,78,4,,,,,,,,,,,110.00972409999667,110.00972409999667,110.00972409999667,110.00972409999667,110.00972409999667,n,1,0.5904087999952026,110.62016909999511,111.12838909999846,,,001,davi,2022-12-31_01h23.27.650,MentalRot,2022.2.1,59.72317115754307,
0,315,n,n,315,4,15,79,14,,,,,,,,,,,111.12838909999846,111.12838909999846,111.12838909999846,111.12838909999846,111.12838909999846,n,1,0.4639058000029763,111.620268199993,112.1282704999976,,,001,davi,2022-12-31_01h23.27.650,MentalRot,2022.2.1,59.72317115754307,
0,90,y,m,90,5,0,80,5,,,,,,,,,,,112.1282704999976,112.1282704999976,112.1282704999976,112.1282704999976,112.1282704999976,n,0,0.47314550000737654,112.61992029999965,113.12692629999947,,,001,davi,2022-12-31_01h23.27.650,MentalRot,2022.2.1,59.72317115754307,
0,315,n,n,315,5,1,81,14,,,,,,,,,,,113.12692629999947,113.12692629999947,113.12692629999947,113.12692629999947,113.12692629999947,n,1,0.5544134000010672,113.7032029999973,114.20997319999879,,,001,davi,2022-12-31_01h23.27.650,MentalRot,2022.2.1,59.72317115754307,
0,90,n,n,90,5,2,82,4,,,,,,,,,,,114.20997319999879,114.20997319999879,114.20997319999879,114.20997319999879,114.20997319999879,n,1,0.6382862999962526,114.86992039999313,115.37890119999793,,,001,davi,2022-12-31_01h23.27.650,MentalRot,2022.2.1,59.72317115754307,
0,270,n,n,270,5,3,83,12,,,,,,,,,,,115.37890119999793,115.37890119999793,115.37890119999793,115.37890119999793,115.37890119999793,n,1,0.613286200001312,116.01982259999932,116.52653759999521,,,001,davi,2022-12-31_01h23.27.650,MentalRot,2022.2.1,59.72317115754307,
0,180,n,n,180,5,4,84,8,,,,,,,,,,,116.52653759999521,116.52653759999521,116.52653759999521,116.52653759999521,116.52653759999521,n,1,0.8099348000032478,117.35278209999524,117.85341369999514,,,001,davi,2022-12-31_01h23.27.650,MentalRot,2022.2.1,59.72317115754307,
0,180,y,m,180,5,5,85,9,,,,,,,,,,,117.85341369999514,117.85341369999514,117.85341369999514,117.85341369999514,117.85341369999514,m,1,0.6193081000019447,118.5029091999968,119.01109609999548,,,001,davi,2022-12-31_01h23.27.650,MentalRot,2022.2.1,59.72317115754307,
0,0,y,m,0,5,6,86,1,,,,,,,,,,,119.01109609999548,119.01109609999548,119.01109609999548,119.01109609999548,119.01109609999548,m,1,0.581173000005947,119.61983029999828,120.12716279999586,,,001,davi,2022-12-31_01h23.27.650,MentalRot,2022.2.1,59.72317115754307,
0,135,n,n,135,5,7,87,6,,,,,,,,,,,120.12716279999586,120.12716279999586,120.12716279999586,120.12716279999586,120.12716279999586,n,1,0.6338580000010552,120.78642939999554,121.29545049999433,,,001,davi,2022-12-31_01h23.27.650,MentalRot,2022.2.1,59.72317115754307,
0,225,y,m,225,5,8,88,11,,,,,,,,,,,121.29545049999433,121.29545049999433,121.29545049999433,121.29545049999433,121.29545049999433,m,1,0.7446434000012232,122.07039029999578,122.57792039999913,,,001,davi,2022-12-31_01h23.27.650,MentalRot,2022.2.1,59.72317115754307,
0,315,y,m,315,5,9,89,15,,,,,,,,,,,122.57792039999913,122.57792039999913,122.57792039999913,122.57792039999913,122.57792039999913,m,1,0.5349997000012081,123.13611059999675,123.6455702999956,,,001,davi,2022-12-31_01h23.27.650,MentalRot,2022.2.1,59.72317115754307,
0,225,n,n,225,5,10,90,10,,,,,,,,,,,123.6455702999956,123.6455702999956,123.6455702999956,123.6455702999956,123.6455702999956,n,1,0.6594379999951343,124.33579989999998,124.84063119999337,,,001,davi,2022-12-31_01h23.27.650,MentalRot,2022.2.1,59.72317115754307,
0,45,n,n,45,5,11,91,2,,,,,,,,,,,124.84063119999337,124.84063119999337,124.84063119999337,124.84063119999337,124.84063119999337,n,1,0.625120100005006,125.48600019999867,125.99362039999687,,,001,davi,2022-12-31_01h23.27.650,MentalRot,2022.2.1,59.72317115754307,
0,270,y,m,270,5,12,92,13,,,,,,,,,,,125.99362039999687,125.99362039999687,125.99362039999687,125.99362039999687,125.99362039999687,m,1,0.6149547000022721,126.6359181999942,127.14856509999663,,,001,davi,2022-12-31_01h23.27.650,MentalRot,2022.2.1,59.72317115754307,
0,135,y,m,135,5,13,93,7,,,,,,,,,,,127.14856509999663,127.14856509999663,127.14856509999663,127.14856509999663,127.14856509999663,m,1,0.6124469999995199,127.78572819999681,128.29261609999958,,,001,davi,2022-12-31_01h23.27.650,MentalRot,2022.2.1,59.72317115754307,
0,0,n,n,0,5,14,94,0,,,,,,,,,,,128.29261609999958,128.29261609999958,128.29261609999958,128.29261609999958,128.29261609999958,n,1,0.523995700001251,128.83567679999396,129.34570879999956,,,001,davi,2022-12-31_01h23.27.650,MentalRot,2022.2.1,59.72317115754307,
0,45,y,m,45,5,15,95,3,,,,,,,,,,,129.34570879999956,129.34570879999956,129.34570879999956,129.34570879999956,129.34570879999956,m,1,0.4469614999979967,129.8194388999982,130.3253270999994,,,001,davi,2022-12-31_01h23.27.650,MentalRot,2022.2.1,59.72317115754307,
0,45,n,n,45,6,0,96,2,,,,,,,,,,,130.3253270999994,130.3253270999994,130.3253270999994,130.3253270999994,130.3253270999994,n,1,0.459712000003492,130.80269429999316,131.30953739999677,,,001,davi,2022-12-31_01h23.27.650,MentalRot,2022.2.1,59.72317115754307,
0,90,n,n,90,6,1,97,4,,,,,,,,,,,131.30953739999677,131.30953739999677,131.30953739999677,131.30953739999677,131.30953739999677,n,1,0.57901070000662,131.9189100999938,132.42815719999635,,,001,davi,2022-12-31_01h23.27.650,MentalRot,2022.2.1,59.72317115754307,
0,180,y,m,180,6,2,98,9,,,,,,,,,,,132.42815719999635,132.42815719999635,132.42815719999635,132.42815719999635,132.42815719999635,m,1,0.5401481000008062,132.98586639999849,133.49500359999365,,,001,davi,2022-12-31_01h23.27.650,MentalRot,2022.2.1,59.72317115754307,
0,135,y,m,135,6,3,99,7,,,,,,,,,,,133.49500359999365,133.49500359999365,133.49500359999365,133.49500359999365,133.49500359999365,m,1,0.6975702999989153,134.21910099999513,134.72744229999807,,,001,davi,2022-12-31_01h23.27.650,MentalRot,2022.2.1,59.72317115754307,
0,45,y,m,45,6,4,100,3,,,,,,,,,,,134.72744229999807,134.72744229999807,134.72744229999807,134.72744229999807,134.72744229999807,m,1,0.4811224000004586,135.23527599999943,135.74477049999405,,,001,davi,2022-12-31_01h23.27.650,MentalRot,2022.2.1,59.72317115754307,
0,0,n,n,0,6,5,101,0,,,,,,,,,,,135.74477049999405,135.74477049999405,135.74477049999405,135.74477049999405,135.74477049999405,n,1,0.7686907999959658,136.53532069999346,137.04380609999498,,,001,davi,2022-12-31_01h23.27.650,MentalRot,2022.2.1,59.72317115754307,
0,315,y,m,315,6,6,102,15,,,,,,,,,,,137.04380609999498,137.04380609999498,137.04380609999498,137.04380609999498,137.04380609999498,m,1,0.613120500005607,137.68543249999493,138.19202419999783,,,001,davi,2022-12-31_01h23.27.650,MentalRot,2022.2.1,59.72317115754307,
0,270,y,m,270,6,7,103,13,,,,,,,,,,,138.19202419999783,138.19202419999783,138.19202419999783,138.19202419999783,138.19202419999783,m,1,0.7051326000000699,138.91899439999543,139.42644019999716,,,001,davi,2022-12-31_01h23.27.650,MentalRot,2022.2.1,59.72317115754307,
0,180,n,n,180,6,8,104,8,,,,,,,,,,,139.42644019999716,139.42644019999716,139.42644019999716,139.42644019999716,139.42644019999716,n,1,0.6777653999961331,140.1353039999958,140.64558089999628,,,001,davi,2022-12-31_01h23.27.650,MentalRot,2022.2.1,59.72317115754307,
0,225,y,m,225,6,9,105,11,,,,,,,,,,,140.64558089999628,140.64558089999628,140.64558089999628,140.64558089999628,140.64558089999628,m,1,0.9872146999987308,141.65170169999328,142.1615743999937,,,001,davi,2022-12-31_01h23.27.650,MentalRot,2022.2.1,59.72317115754307,
0,90,y,m,90,6,10,106,5,,,,,,,,,,,142.1615743999937,142.1615743999937,142.1615743999937,142.1615743999937,142.1615743999937,m,1,0.6385267000005115,142.81821779999882,143.32583840000007,,,001,davi,2022-12-31_01h23.27.650,MentalRot,2022.2.1,59.72317115754307,
0,0,y,m,0,6,11,107,1,,,,,,,,,,,143.32583840000007,143.32583840000007,143.32583840000007,143.32583840000007,143.32583840000007,m,1,0.4669990000038524,143.81826769999316,144.31870899999922,,,001,davi,2022-12-31_01h23.27.650,MentalRot,2022.2.1,59.72317115754307,
0,225,n,n,225,6,12,108,10,,,,,,,,,,,144.31870899999922,144.31870899999922,144.31870899999922,144.31870899999922,144.31870899999922,n,1,0.6179112999961944,144.96872159999475,145.4690749999936,,,001,davi,2022-12-31_01h23.27.650,MentalRot,2022.2.1,59.72317115754307,
0,315,n,n,315,6,13,109,14,,,,,,,,,,,145.4690749999936,145.4690749999936,145.4690749999936,145.4690749999936,145.4690749999936,n,1,0.5873044999971171,146.08523409999907,146.588983499998,,,001,davi,2022-12-31_01h23.27.650,MentalRot,2022.2.1,59.72317115754307,
0,270,n,n,270,6,14,110,12,,,,,,,,,,,146.588983499998,146.588983499998,146.588983499998,146.588983499998,146.588983499998,n,1,0.6280773999969824,147.23485389999405,147.74687899999844,,,001,davi,2022-12-31_01h23.27.650,MentalRot,2022.2.1,59.72317115754307,
0,135,n,n,135,6,15,111,6,,,,,,,,,,,147.74687899999844,147.74687899999844,147.74687899999844,147.74687899999844,147.74687899999844,n,1,0.6301959000047646,148.40158109999902,148.9083268999966,,,001,davi,2022-12-31_01h23.27.650,MentalRot,2022.2.1,59.72317115754307,
0,180,n,n,180,7,0,112,8,,,,,,,,,,,148.9083268999966,148.9083268999966,148.9083268999966,148.9083268999966,148.9083268999966,m,0,0.6519379000019399,149.58518859999458,150.09239249999519,,,001,davi,2022-12-31_01h23.27.650,MentalRot,2022.2.1,59.72317115754307,
0,270,n,n,270,7,1,113,12,,,,,,,,,,,150.09239249999519,150.09239249999519,150.09239249999519,150.09239249999519,150.09239249999519,n,1,0.7162162000022363,150.8347308999946,151.34398929999588,,,001,davi,2022-12-31_01h23.27.650,MentalRot,2022.2.1,59.72317115754307,
0,180,y,m,180,7,2,114,9,,,,,,,,,,,151.34398929999588,151.34398929999588,151.34398929999588,151.34398929999588,151.34398929999588,m,1,0.6963013999993564,152.0682822999952,152.56809869999415,,,001,davi,2022-12-31_01h23.27.650,MentalRot,2022.2.1,59.72317115754307,
0,0,n,n,0,7,3,115,0,,,,,,,,,,,152.56809869999415,152.56809869999415,152.56809869999415,152.56809869999415,152.56809869999415,n,1,0.6894599000006565,153.28456649999862,153.79250469999533,,,001,davi,2022-12-31_01h23.27.650,MentalRot,2022.2.1,59.72317115754307,
0,315,y,m,315,7,4,116,15,,,,,,,,,,,153.79250469999533,153.79250469999533,153.79250469999533,153.79250469999533,153.79250469999533,n,0,0.6163286000009975,154.4345264999938,154.94421539999894,,,001,davi,2022-12-31_01h23.27.650,MentalRot,2022.2.1,59.72317115754307,
0,90,n,n,90,7,5,117,4,,,,,,,,,,,154.94421539999894,154.94421539999894,154.94421539999894,154.94421539999894,154.94421539999894,n,1,0.7447137999988627,155.71828649999952,156.224063499998,,,001,davi,2022-12-31_01h23.27.650,MentalRot,2022.2.1,59.72317115754307,
0,90,y,m,90,7,6,118,5,,,,,,,,,,,156.224063499998,156.224063499998,156.224063499998,156.224063499998,156.224063499998,m,1,0.5290928999966127,156.78451669999777,157.29074679999758,,,001,davi,2022-12-31_01h23.27.650,MentalRot,2022.2.1,59.72317115754307,
0,135,y,m,135,7,7,119,7,,,,,,,,,,,157.29074679999758,157.29074679999758,157.29074679999758,157.29074679999758,157.29074679999758,m,1,0.67029470000125,157.9843497999973,158.49048789999506,,,001,davi,2022-12-31_01h23.27.650,MentalRot,2022.2.1,59.72317115754307,
0,0,y,m,0,7,8,120,1,,,,,,,,,,,158.49048789999506,158.49048789999506,158.49048789999506,158.49048789999506,158.49048789999506,m,1,0.5267863000044599,159.03469879999466,159.53508249999868,,,001,davi,2022-12-31_01h23.27.650,MentalRot,2022.2.1,59.72317115754307,
0,45,y,m,45,7,9,121,3,,,,,,,,,,,159.53508249999868,159.53508249999868,159.53508249999868,159.53508249999868,159.53508249999868,m,1,0.5464700000011362,160.10090729999501,160.60676959999546,,,001,davi,2022-12-31_01h23.27.650,MentalRot,2022.2.1,59.72317115754307,
0,135,n,n,135,7,10,122,6,,,,,,,,,,,160.60676959999546,160.60676959999546,160.60676959999546,160.60676959999546,160.60676959999546,n,1,0.6736505000008037,161.30150009999488,161.80873099999735,,,001,davi,2022-12-31_01h23.27.650,MentalRot,2022.2.1,59.72317115754307,
0,45,n,n,45,7,11,123,2,,,,,,,,,,,161.80873099999735,161.80873099999735,161.80873099999735,161.80873099999735,161.80873099999735,n,1,0.5364466999963042,162.36776649999956,162.87431309999374,,,001,davi,2022-12-31_01h23.27.650,MentalRot,2022.2.1,59.72317115754307,
0,225,y,m,225,7,12,124,11,,,,,,,,,,,162.87431309999374,162.87431309999374,162.87431309999374,162.87431309999374,162.87431309999374,m,1,0.646661500002665,163.5508933999954,164.05827639999916,,,001,davi,2022-12-31_01h23.27.650,MentalRot,2022.2.1,59.72317115754307,
0,270,y,m,270,7,13,125,13,,,,,,,,,,,164.05827639999916,164.05827639999916,164.05827639999916,164.05827639999916,164.05827639999916,m,1,0.7018572000015411,164.78412289999687,165.29512489999615,,,001,davi,2022-12-31_01h23.27.650,MentalRot,2022.2.1,59.72317115754307,
0,225,n,n,225,7,14,126,10,,,,,,,,,,,165.29512489999615,165.29512489999615,165.29512489999615,165.29512489999615,165.29512489999615,n,1,0.6500331999995979,165.96764269999403,166.47658509999746,,,001,davi,2022-12-31_01h23.27.650,MentalRot,2022.2.1,59.72317115754307,
0,315,n,n,315,7,15,127,14,,,,,,,,,,,166.47658509999746,166.47658509999746,166.47658509999746,166.47658509999746,166.47658509999746,n,1,0.5566143000032753,167.05061299999943,167.55961159999424,,,001,davi,2022-12-31_01h23.27.650,MentalRot,2022.2.1,59.72317115754307,
0,45,y,m,45,8,0,128,3,,,,,,,,,,,167.55961159999424,167.55961159999424,167.55961159999424,167.55961159999424,167.55961159999424,m,1,0.5855032000035862,168.16759729999467,168.6753308999978,,,001,davi,2022-12-31_01h23.27.650,MentalRot,2022.2.1,59.72317115754307,
0,90,n,n,90,8,1,129,4,,,,,,,,,,,168.6753308999978,168.6753308999978,168.6753308999978,168.6753308999978,168.6753308999978,n,1,0.6221014000038849,169.31720349999523,169.825159299995,,,001,davi,2022-12-31_01h23.27.650,MentalRot,2022.2.1,59.72317115754307,
0,90,y,m,90,8,2,130,5,,,,,,,,,,,169.825159299995,169.825159299995,169.825159299995,169.825159299995,169.825159299995,m,1,0.6478055000043241,170.5008108999973,171.00598799999716,,,001,davi,2022-12-31_01h23.27.650,MentalRot,2022.2.1,59.72317115754307,
0,225,y,m,225,8,3,131,11,,,,,,,,,,,171.00598799999716,171.00598799999716,171.00598799999716,171.00598799999716,171.00598799999716,n,0,0.5710230999975465,171.60079699999915,172.10732629999984,,,001,davi,2022-12-31_01h23.27.650,MentalRot,2022.2.1,59.72317115754307,
0,0,n,n,0,8,4,132,0,,,,,,,,,,,172.10732629999984,172.10732629999984,172.10732629999984,172.10732629999984,172.10732629999984,n,1,0.5651364000077592,172.70038119999663,173.20798309999373,,,001,davi,2022-12-31_01h23.27.650,MentalRot,2022.2.1,59.72317115754307,
0,180,n,n,180,8,5,133,8,,,,,,,,,,,173.20798309999373,173.20798309999373,173.20798309999373,173.20798309999373,173.20798309999373,n,1,0.7124878000031458,173.9504095999946,174.45631299999513,,,001,davi,2022-12-31_01h23.27.650,MentalRot,2022.2.1,59.72317115754307,
0,315,y,m,315,8,6,134,15,,,,,,,,,,,174.45631299999513,174.45631299999513,174.45631299999513,174.45631299999513,174.45631299999513,m,1,0.5044666000030702,174.98347099999955,175.48996699999407,,,001,davi,2022-12-31_01h23.27.650,MentalRot,2022.2.1,59.72317115754307,
0,0,y,m,0,8,7,135,1,,,,,,,,,,,175.48996699999407,175.48996699999407,175.48996699999407,175.48996699999407,175.48996699999407,m,1,0.48637980000057723,176.00004149999586,176.50572089999332,,,001,davi,2022-12-31_01h23.27.650,MentalRot,2022.2.1,59.72317115754307,
0,180,y,m,180,8,8,136,9,,,,,,,,,,,176.50572089999332,176.50572089999332,176.50572089999332,176.50572089999332,176.50572089999332,m,1,0.6305338000020129,177.16710779999994,177.67422099999385,,,001,davi,2022-12-31_01h23.27.650,MentalRot,2022.2.1,59.72317115754307,
0,315,n,n,315,8,9,137,14,,,,,,,,,,,177.67422099999385,177.67422099999385,177.67422099999385,177.67422099999385,177.67422099999385,n,1,0.606217699998524,178.3002081999948,178.80671369999618,,,001,davi,2022-12-31_01h23.27.650,MentalRot,2022.2.1,59.72317115754307,
0,135,n,n,135,8,10,138,6,,,,,,,,,,,178.80671369999618,178.80671369999618,178.80671369999618,178.80671369999618,178.80671369999618,n,1,0.9379035999954795,179.76692059999914,180.2760846999954,,,001,davi,2022-12-31_01h23.27.650,MentalRot,2022.2.1,59.72317115754307,
0,45,n,n,45,8,11,139,2,,,,,,,,,,,180.2760846999954,180.2760846999954,180.2760846999954,180.2760846999954,180.2760846999954,n,1,0.5736934000015026,180.86689539999497,181.37233959999867,,,001,davi,2022-12-31_01h23.27.650,MentalRot,2022.2.1,59.72317115754307,
0,270,y,m,270,8,12,140,13,,,,,,,,,,,181.37233959999867,181.37233959999867,181.37233959999867,181.37233959999867,181.37233959999867,n,0,0.5644891999982065,181.9667741999947,182.4749842999954,,,001,davi,2022-12-31_01h23.27.650,MentalRot,2022.2.1,59.72317115754307,
0,135,y,m,135,8,13,141,7,,,,,,,,,,,182.4749842999954,182.4749842999954,182.4749842999954,182.4749842999954,182.4749842999954,m,1,0.5492258000012953,183.05024719999346,183.5575994999963,,,001,davi,2022-12-31_01h23.27.650,MentalRot,2022.2.1,59.72317115754307,
0,225,n,n,225,8,14,142,10,,,,,,,,,,,183.5575994999963,183.5575994999963,183.5575994999963,183.5575994999963,183.5575994999963,n,1,1.0593316000013147,184.63313939999352,185.14413539999805,,,001,davi,2022-12-31_01h23.27.650,MentalRot,2022.2.1,59.72317115754307,
0,270,n,n,270,8,15,143,12,,,,,,,,,,,185.14413539999805,185.14413539999805,185.14413539999805,185.14413539999805,185.14413539999805,n,1,0.6648131999972975,185.83315149999544,186.3438645999995,,,001,davi,2022-12-31_01h23.27.650,MentalRot,2022.2.1,59.72317115754307,
0,0,n,n,0,9,0,144,0,,,,,,,,,,,186.3438645999995,186.3438645999995,186.3438645999995,186.3438645999995,186.3438645999995,n,1,0.5443759999980102,186.91666979999718,187.4250605999987,,,001,davi,2022-12-31_01h23.27.650,MentalRot,2022.2.1,59.72317115754307,
0,270,y,m,270,9,1,145,13,,,,,,,,,,,187.4250605999987,187.4250605999987,187.4250605999987,187.4250605999987,187.4250605999987,m,1,0.7200859999938984,188.16659849999996,188.67289969999547,,,001,davi,2022-12-31_01h23.27.650,MentalRot,2022.2.1,59.72317115754307,
0,90,n,n,90,9,2,146,4,,,,,,,,,,,188.67289969999547,188.67289969999547,188.67289969999547,188.67289969999547,188.67289969999547,n,1,0.6637227999963216,189.3664076999994,189.8730232999951,,,001,davi,2022-12-31_01h23.27.650,MentalRot,2022.2.1,59.72317115754307,
0,315,n,n,315,9,3,147,14,,,,,,,,,,,189.8730232999951,189.8730232999951,189.8730232999951,189.8730232999951,189.8730232999951,n,1,0.5591915000040899,190.44955229999323,190.9564420999959,,,001,davi,2022-12-31_01h23.27.650,MentalRot,2022.2.1,59.72317115754307,
0,180,n,n,180,9,4,148,8,,,,,,,,,,,190.9564420999959,190.9564420999959,190.9564420999959,190.9564420999959,190.9564420999959,n,1,0.796283300005598,191.78304679999565,192.29271719999815,,,001,davi,2022-12-31_01h23.27.650,MentalRot,2022.2.1,59.72317115754307,
0,270,n,n,270,9,5,149,12,,,,,,,,,,,192.29271719999815,192.29271719999815,192.29271719999815,192.29271719999815,192.29271719999815,n,1,0.6844149000025936,192.99961439999606,193.506180999997,,,001,davi,2022-12-31_01h23.27.650,MentalRot,2022.2.1,59.72317115754307,
0,90,y,m,90,9,6,150,5,,,,,,,,,,,193.506180999997,193.506180999997,193.506180999997,193.506180999997,193.506180999997,m,1,0.6708960000032675,194.1998953999937,194.70732829999906,,,001,davi,2022-12-31_01h23.27.650,MentalRot,2022.2.1,59.72317115754307,
0,315,y,m,315,9,7,151,15,,,,,,,,,,,194.70732829999906,194.70732829999906,194.70732829999906,194.70732829999906,194.70732829999906,m,1,0.5419431999980588,195.26627929999813,195.77569489999587,,,001,davi,2022-12-31_01h23.27.650,MentalRot,2022.2.1,59.72317115754307,
0,135,n,n,135,9,8,152,6,,,,,,,,,,,195.77569489999587,195.77569489999587,195.77569489999587,195.77569489999587,195.77569489999587,n,1,1.0566553000026033,196.84953879999375,197.3593705999956,,,001,davi,2022-12-31_01h23.27.650,MentalRot,2022.2.1,59.72317115754307,
0,180,y,m,180,9,9,153,9,,,,,,,,,,,197.3593705999956,197.3593705999956,197.3593705999956,197.3593705999956,197.3593705999956,m,1,0.6815406000023359,198.06589879999956,198.57575339999312,,,001,davi,2022-12-31_01h23.27.650,MentalRot,2022.2.1,59.72317115754307,
0,135,y,m,135,9,10,154,7,,,,,,,,,,,198.57575339999312,198.57575339999312,198.57575339999312,198.57575339999312,198.57575339999312,m,1,0.5369983000055072,199.13274709999678,199.64064349999535,,,001,davi,2022-12-31_01h23.27.650,MentalRot,2022.2.1,59.72317115754307,
0,225,n,n,225,9,11,155,10,,,,,,,,,,,199.64064349999535,199.64064349999535,199.64064349999535,199.64064349999535,199.64064349999535,n,1,0.5837881000043126,200.2491596999971,200.75932899999316,,,001,davi,2022-12-31_01h23.27.650,MentalRot,2022.2.1,59.72317115754307,
0,225,y,m,225,9,12,156,11,,,,,,,,,,,200.75932899999316,200.75932899999316,200.75932899999316,200.75932899999316,200.75932899999316,m,1,0.5694138000035309,201.34912919999624,201.85612639999454,,,001,davi,2022-12-31_01h23.27.650,MentalRot,2022.2.1,59.72317115754307,
0,45,n,n,45,9,13,157,2,,,,,,,,,,,201.85612639999454,201.85612639999454,201.85612639999454,201.85612639999454,201.85612639999454,n,1,1.2728643999944325,203.14928220000002,203.65588059999573,,,001,davi,2022-12-31_01h23.27.650,MentalRot,2022.2.1,59.72317115754307,
0,45,y,m,45,9,14,158,3,,,,,,,,,,,203.65588059999573,203.65588059999573,203.65588059999573,203.65588059999573,203.65588059999573,m,1,0.6329092000014498,204.31545679999545,204.82106839999324,,,001,davi,2022-12-31_01h23.27.650,MentalRot,2022.2.1,59.72317115754307,
0,0,y,m,0,9,15,159,1,,,,,,,,,,,204.82106839999324,204.82106839999324,204.82106839999324,204.82106839999324,204.82106839999324,m,1,0.5953306000010343,205.43261079999502,205.93257899999298,,,001,davi,2022-12-31_01h23.27.650,MentalRot,2022.2.1,59.72317115754307,
,,,,,,,,,,,,,,,,,,,,,,,,,,,,,205.93257899999298,205.93257899999298,,,,,,,
