leftori,rightori,same,corrAns,angle,trials.thisRepN,trials.thisTrialN,trials.thisN,trials.thisIndex,instr_txt_1.started,instr_key_1.started,instr_key_1.keys,instr_key_1.rt,image_L_3.started,image_R_3.started,instr_txt_2.started,instr_key_2.started,mini_pause_2.started,mini_pause_2.stopped,image_L.started,image_R.started,response.started,main_instr.started,trial_count.started,response.keys,response.corr,response.rt,mini_pause.started,mini_pause.stopped,end_txt.started,end_key.started,session,participant,date,expName,psychopyVersion,frameRate,
,,,,,,,,,273.5961299000046,273.5961299000046,m,1.6744983999960823,,,,,,,,,,,,,,,,,,,001,fabi,2022-12-31_01h35.07.697,MentalRot,2022.2.1,60.042822541204046,
0,90,n,n,90,0,0,0,4,,,,,275.35985270000674,275.35985270000674,275.35985270000674,275.35985270000674,277.6104706000042,279.129797900001,279.129797900001,279.129797900001,279.129797900001,279.129797900001,279.129797900001,n,1,1.2131741999983205,280.36033670000324,280.86654830000043,,,001,fabi,2022-12-31_01h35.07.697,MentalRot,2022.2.1,60.042822541204046,
0,0,n,n,0,0,1,1,0,,,,,,,,,,,280.86654830000043,280.86654830000043,280.86654830000043,280.86654830000043,280.86654830000043,n,1,0.6604501999972854,281.543731800004,282.0515025000059,,,001,fabi,2022-12-31_01h35.07.697,MentalRot,2022.2.1,60.042822541204046,
0,90,y,m,90,0,2,2,5,,,,,,,,,,,282.0515025000059,282.0515025000059,282.0515025000059,282.0515025000059,282.0515025000059,m,1,0.5305724999998347,282.61068520000117,283.1170371000044,,,001,fabi,2022-12-31_01h35.07.697,MentalRot,2022.2.1,60.042822541204046,
0,225,n,n,225,0,3,3,10,,,,,,,,,,,283.1170371000044,283.1170371000044,283.1170371000044,283.1170371000044,283.1170371000044,n,1,0.8010214999958407,283.943405900005,284.4568881000014,,,001,fabi,2022-12-31_01h35.07.697,MentalRot,2022.2.1,60.042822541204046,
0,180,n,n,180,0,4,4,8,,,,,,,,,,,284.4568881000014,284.4568881000014,284.4568881000014,284.4568881000014,284.4568881000014,n,1,0.7669335999962641,285.243721800005,285.75057740000193,,,001,fabi,2022-12-31_01h35.07.697,MentalRot,2022.2.1,60.042822541204046,
0,270,y,m,270,0,5,5,13,,,,,,,,,,,285.75057740000193,285.75057740000193,285.75057740000193,285.75057740000193,285.75057740000193,m,1,0.5842019999981858,286.36039500000334,286.86864700000297,,,001,fabi,2022-12-31_01h35.07.697,MentalRot,2022.2.1,60.042822541204046,
0,45,y,m,45,0,6,6,3,,,,,,,,,,,286.86864700000297,286.86864700000297,286.86864700000297,286.86864700000297,286.86864700000297,m,1,0.5211734000040451,287.41029070000513,287.9202284000057,,,001,fabi,2022-12-31_01h35.07.697,MentalRot,2022.2.1,60.042822541204046,
0,0,y,m,0,0,7,7,1,,,,,,,,,,,287.9202284000057,287.9202284000057,287.9202284000057,287.9202284000057,287.9202284000057,m,1,0.5102273000011337,288.4603167000023,288.96960240000044,,,001,fabi,2022-12-31_01h35.07.697,MentalRot,2022.2.1,60.042822541204046,
0,180,y,m,180,0,8,8,9,,,,,,,,,,,288.96960240000044,288.96960240000044,288.96960240000044,288.96960240000044,288.96960240000044,m,1,0.8057923000014853,289.7934389000002,290.2994338000062,,,001,fabi,2022-12-31_01h35.07.697,MentalRot,2022.2.1,60.042822541204046,
0,135,y,m,135,0,9,9,7,,,,,,,,,,,290.2994338000062,290.2994338000062,290.2994338000062,290.2994338000062,290.2994338000062,m,1,0.5864736000003177,290.91032200000336,291.4167832000021,,,001,fabi,2022-12-31_01h35.07.697,MentalRot,2022.2.1,60.042822541204046,
0,315,n,n,315,0,10,10,14,,,,,,,,,,,291.4167832000021,291.4167832000021,291.4167832000021,291.4167832000021,291.4167832000021,n,1,0.5742057000024943,292.01021700000274,292.51756320000277,,,001,fabi,2022-12-31_01h35.07.697,MentalRot,2022.2.1,60.042822541204046,
0,225,y,m,225,0,11,11,11,,,,,,,,,,,292.51756320000277,292.51756320000277,292.51756320000277,292.51756320000277,292.51756320000277,n,0,0.6414800999991712,293.1766155000005,293.682112100003,,,001,fabi,2022-12-31_01h35.07.697,MentalRot,2022.2.1,60.042822541204046,
0,135,n,n,135,0,12,12,6,,,,,,,,,,,293.682112100003,293.682112100003,293.682112100003,293.682112100003,293.682112100003,n,1,0.7481176999935997,294.45992140000453,294.97628950000217,,,001,fabi,2022-12-31_01h35.07.697,MentalRot,2022.2.1,60.042822541204046,
0,270,n,n,270,0,13,13,12,,,,,,,,,,,294.97628950000217,294.97628950000217,294.97628950000217,294.97628950000217,294.97628950000217,n,1,0.6538568000032683,295.6598384000026,296.1645506000059,,,001,fabi,2022-12-31_01h35.07.697,MentalRot,2022.2.1,60.042822541204046,
0,45,n,n,45,0,14,14,2,,,,,,,,,,,296.1645506000059,296.1645506000059,296.1645506000059,296.1645506000059,296.1645506000059,n,1,0.6258159999997588,296.80974490000517,297.3160874000023,,,001,fabi,2022-12-31_01h35.07.697,MentalRot,2022.2.1,60.042822541204046,
0,315,y,m,315,0,15,15,15,,,,,,,,,,,297.3160874000023,297.3160874000023,297.3160874000023,297.3160874000023,297.3160874000023,m,1,0.5858168999984628,297.9263898000063,298.43020100000285,,,001,fabi,2022-12-31_01h35.07.697,MentalRot,2022.2.1,60.042822541204046,
0,180,y,m,180,1,0,16,9,,,,,,,,,,,298.43020100000285,298.43020100000285,298.43020100000285,298.43020100000285,298.43020100000285,m,1,0.6478237000046647,299.10966730000655,299.6159415000002,,,001,fabi,2022-12-31_01h35.07.697,MentalRot,2022.2.1,60.042822541204046,
0,90,y,m,90,1,1,17,5,,,,,,,,,,,299.6159415000002,299.6159415000002,299.6159415000002,299.6159415000002,299.6159415000002,m,1,0.5182148999956553,300.1598202000023,300.6665256000051,,,001,fabi,2022-12-31_01h35.07.697,MentalRot,2022.2.1,60.042822541204046,
0,0,y,m,0,1,2,18,1,,,,,,,,,,,300.6665256000051,300.6665256000051,300.6665256000051,300.6665256000051,300.6665256000051,m,1,0.580207099999825,301.276102900003,301.7815805000064,,,001,fabi,2022-12-31_01h35.07.697,MentalRot,2022.2.1,60.042822541204046,
0,45,n,n,45,1,3,19,2,,,,,,,,,,,301.7815805000064,301.7815805000064,301.7815805000064,301.7815805000064,301.7815805000064,n,1,0.6483685999992304,302.45957620000263,302.96525450000627,,,001,fabi,2022-12-31_01h35.07.697,MentalRot,2022.2.1,60.042822541204046,
0,90,n,n,90,1,4,20,4,,,,,,,,,,,302.96525450000627,302.96525450000627,302.96525450000627,302.96525450000627,302.96525450000627,n,1,0.6892119999974966,303.67617299999984,304.18170620000456,,,001,fabi,2022-12-31_01h35.07.697,MentalRot,2022.2.1,60.042822541204046,
0,270,n,n,270,1,5,21,12,,,,,,,,,,,304.18170620000456,304.18170620000456,304.18170620000456,304.18170620000456,304.18170620000456,n,1,0.7612556000021868,304.95940240000346,305.4664477000042,,,001,fabi,2022-12-31_01h35.07.697,MentalRot,2022.2.1,60.042822541204046,
0,135,y,m,135,1,6,22,7,,,,,,,,,,,305.4664477000042,305.4664477000042,305.4664477000042,305.4664477000042,305.4664477000042,m,1,0.667903399997158,306.15964660000463,306.66813540000294,,,001,fabi,2022-12-31_01h35.07.697,MentalRot,2022.2.1,60.042822541204046,
0,180,n,n,180,1,7,23,8,,,,,,,,,,,306.66813540000294,306.66813540000294,306.66813540000294,306.66813540000294,306.66813540000294,n,1,0.825684999996156,307.5258685000008,308.02868400000443,,,001,fabi,2022-12-31_01h35.07.697,MentalRot,2022.2.1,60.042822541204046,
0,45,y,m,45,1,8,24,3,,,,,,,,,,,308.02868400000443,308.02868400000443,308.02868400000443,308.02868400000443,308.02868400000443,m,1,0.5618067999967025,308.60900020000554,309.11017490000086,,,001,fabi,2022-12-31_01h35.07.697,MentalRot,2022.2.1,60.042822541204046,
0,135,n,n,135,1,9,25,6,,,,,,,,,,,309.11017490000086,309.11017490000086,309.11017490000086,309.11017490000086,309.11017490000086,n,1,0.7116688000023714,309.8425844000012,310.3438024000061,,,001,fabi,2022-12-31_01h35.07.697,MentalRot,2022.2.1,60.042822541204046,
0,225,n,n,225,1,10,26,10,,,,,,,,,,,310.3438024000061,310.3438024000061,310.3438024000061,310.3438024000061,310.3438024000061,n,1,0.7990250000002561,311.15905710000516,311.6636820000058,,,001,fabi,2022-12-31_01h35.07.697,MentalRot,2022.2.1,60.042822541204046,
0,0,n,n,0,1,11,27,0,,,,,,,,,,,311.6636820000058,311.6636820000058,311.6636820000058,311.6636820000058,311.6636820000058,n,1,0.5912333000014769,312.27566020000086,312.78160700000444,,,001,fabi,2022-12-31_01h35.07.697,MentalRot,2022.2.1,60.042822541204046,
0,315,n,n,315,1,12,28,14,,,,,,,,,,,312.78160700000444,312.78160700000444,312.78160700000444,312.78160700000444,312.78160700000444,n,1,0.5606610999966506,313.3590858000025,313.8655174000014,,,001,fabi,2022-12-31_01h35.07.697,MentalRot,2022.2.1,60.042822541204046,
0,225,y,m,225,1,13,29,11,,,,,,,,,,,313.8655174000014,313.8655174000014,313.8655174000014,313.8655174000014,313.8655174000014,m,1,0.7483198999980232,314.64243230000284,315.1495278000002,,,001,fabi,2022-12-31_01h35.07.697,MentalRot,2022.2.1,60.042822541204046,
0,315,y,m,315,1,14,30,15,,,,,,,,,,,315.1495278000002,315.1495278000002,315.1495278000002,315.1495278000002,315.1495278000002,m,1,0.5288014999969164,315.70885350000026,316.2152383000066,,,001,fabi,2022-12-31_01h35.07.697,MentalRot,2022.2.1,60.042822541204046,
0,270,y,m,270,1,15,31,13,,,,,,,,,,,316.2152383000066,316.2152383000066,316.2152383000066,316.2152383000066,316.2152383000066,m,1,0.566616799995245,316.8089101000005,317.3163907000053,,,001,fabi,2022-12-31_01h35.07.697,MentalRot,2022.2.1,60.042822541204046,
0,90,n,n,90,2,0,32,4,,,,,,,,,,,317.3163907000053,317.3163907000053,317.3163907000053,317.3163907000053,317.3163907000053,n,1,0.8015904999992927,318.1421005000011,318.6500484999997,,,001,fabi,2022-12-31_01h35.07.697,MentalRot,2022.2.1,60.042822541204046,
0,0,y,m,0,2,1,33,1,,,,,,,,,,,318.6500484999997,318.6500484999997,318.6500484999997,318.6500484999997,318.6500484999997,m,1,0.509070399995835,319.17562810000527,319.6800541000048,,,001,fabi,2022-12-31_01h35.07.697,MentalRot,2022.2.1,60.042822541204046,
0,45,y,m,45,2,2,34,3,,,,,,,,,,,319.6800541000048,319.6800541000048,319.6800541000048,319.6800541000048,319.6800541000048,m,1,0.509960499999579,320.2088419000065,320.71615540000494,,,001,fabi,2022-12-31_01h35.07.697,MentalRot,2022.2.1,60.042822541204046,
0,135,n,n,135,2,3,35,6,,,,,,,,,,,320.71615540000494,320.71615540000494,320.71615540000494,320.71615540000494,320.71615540000494,n,1,0.7143447999987984,321.45887680000305,321.9641869000043,,,001,fabi,2022-12-31_01h35.07.697,MentalRot,2022.2.1,60.042822541204046,
0,90,y,m,90,2,4,36,5,,,,,,,,,,,321.9641869000043,321.9641869000043,321.9641869000043,321.9641869000043,321.9641869000043,m,1,0.5622397999977693,322.55874570000015,323.06934880000335,,,001,fabi,2022-12-31_01h35.07.697,MentalRot,2022.2.1,60.042822541204046,
0,270,n,n,270,2,5,37,12,,,,,,,,,,,323.06934880000335,323.06934880000335,323.06934880000335,323.06934880000335,323.06934880000335,n,1,0.6570498000000953,323.75847559999966,324.2624888999999,,,001,fabi,2022-12-31_01h35.07.697,MentalRot,2022.2.1,60.042822541204046,
0,135,y,m,135,2,6,38,7,,,,,,,,,,,324.2624888999999,324.2624888999999,324.2624888999999,324.2624888999999,324.2624888999999,m,1,0.5597020999994129,324.8417632000055,325.3513807000054,,,001,fabi,2022-12-31_01h35.07.697,MentalRot,2022.2.1,60.042822541204046,
0,180,y,m,180,2,7,39,9,,,,,,,,,,,325.3513807000054,325.3513807000054,325.3513807000054,325.3513807000054,325.3513807000054,m,1,0.5750977999996394,325.95835540000553,326.46428360000573,,,001,fabi,2022-12-31_01h35.07.697,MentalRot,2022.2.1,60.042822541204046,
0,225,y,m,225,2,8,40,11,,,,,,,,,,,326.46428360000573,326.46428360000573,326.46428360000573,326.46428360000573,326.46428360000573,m,1,0.6067382000037469,327.0917073000019,327.59848330000386,,,001,fabi,2022-12-31_01h35.07.697,MentalRot,2022.2.1,60.042822541204046,
0,225,n,n,225,2,9,41,10,,,,,,,,,,,327.59848330000386,327.59848330000386,327.59848330000386,327.59848330000386,327.59848330000386,n,1,0.6560331000000588,328.2750640000013,328.7807008000018,,,001,fabi,2022-12-31_01h35.07.697,MentalRot,2022.2.1,60.042822541204046,
0,0,n,n,0,2,10,42,0,,,,,,,,,,,328.7807008000018,328.7807008000018,328.7807008000018,328.7807008000018,328.7807008000018,n,1,0.5938026999938302,329.3914991000056,329.8976602000039,,,001,fabi,2022-12-31_01h35.07.697,MentalRot,2022.2.1,60.042822541204046,
0,315,n,n,315,2,11,43,14,,,,,,,,,,,329.8976602000039,329.8976602000039,329.8976602000039,329.8976602000039,329.8976602000039,n,1,0.6285971999968751,330.5581081000055,331.0642485999997,,,001,fabi,2022-12-31_01h35.07.697,MentalRot,2022.2.1,60.042822541204046,
0,315,y,m,315,2,12,44,15,,,,,,,,,,,331.0642485999997,331.0642485999997,331.0642485999997,331.0642485999997,331.0642485999997,m,1,0.518187300003774,331.6083360000048,332.11425710000185,,,001,fabi,2022-12-31_01h35.07.697,MentalRot,2022.2.1,60.042822541204046,
0,45,n,n,45,2,13,45,2,,,,,,,,,,,332.11425710000185,332.11425710000185,332.11425710000185,332.11425710000185,332.11425710000185,n,1,0.5887239000003319,332.724658500003,333.2336873000022,,,001,fabi,2022-12-31_01h35.07.697,MentalRot,2022.2.1,60.042822541204046,
0,270,y,m,270,2,14,46,13,,,,,,,,,,,333.2336873000022,333.2336873000022,333.2336873000022,333.2336873000022,333.2336873000022,m,1,0.5649119000008795,333.82473610000307,334.3315467000066,,,001,fabi,2022-12-31_01h35.07.697,MentalRot,2022.2.1,60.042822541204046,
0,180,n,n,180,2,15,47,8,,,,,,,,,,,334.3315467000066,334.3315467000066,334.3315467000066,334.3315467000066,334.3315467000066,n,1,0.7629270000034012,335.124744700006,335.6316436000052,,,001,fabi,2022-12-31_01h35.07.697,MentalRot,2022.2.1,60.042822541204046,
0,45,n,n,45,3,0,48,2,,,,,,,,,,,335.6316436000052,335.6316436000052,335.6316436000052,335.6316436000052,335.6316436000052,n,1,0.7035778999998001,336.3580449000001,336.8637008000005,,,001,fabi,2022-12-31_01h35.07.697,MentalRot,2022.2.1,60.042822541204046,
0,135,n,n,135,3,1,49,6,,,,,,,,,,,336.8637008000005,336.8637008000005,336.8637008000005,336.8637008000005,336.8637008000005,n,1,0.6301383999962127,337.5247379000066,338.03061069999967,,,001,fabi,2022-12-31_01h35.07.697,MentalRot,2022.2.1,60.042822541204046,
0,315,y,m,315,3,2,50,15,,,,,,,,,,,338.03061069999967,338.03061069999967,338.03061069999967,338.03061069999967,338.03061069999967,m,1,0.49527970000053756,338.5576352000062,339.0644803000032,,,001,fabi,2022-12-31_01h35.07.697,MentalRot,2022.2.1,60.042822541204046,
0,225,y,m,225,3,3,51,11,,,,,,,,,,,339.0644803000032,339.0644803000032,339.0644803000032,339.0644803000032,339.0644803000032,m,1,0.6861002000005101,339.77406150000024,340.27464610000607,,,001,fabi,2022-12-31_01h35.07.697,MentalRot,2022.2.1,60.042822541204046,
0,45,y,m,45,3,4,52,3,,,,,,,,,,,340.27464610000607,340.27464610000607,340.27464610000607,340.27464610000607,340.27464610000607,m,1,0.5238718000036897,340.8241322000031,341.32879140000296,,,001,fabi,2022-12-31_01h35.07.697,MentalRot,2022.2.1,60.042822541204046,
0,0,n,n,0,3,5,53,0,,,,,,,,,,,341.32879140000296,341.32879140000296,341.32879140000296,341.32879140000296,341.32879140000296,n,1,0.5497485999949276,341.9077050000051,342.4136301000035,,,001,fabi,2022-12-31_01h35.07.697,MentalRot,2022.2.1,60.042822541204046,
0,0,y,m,0,3,6,54,1,,,,,,,,,,,342.4136301000035,342.4136301000035,342.4136301000035,342.4136301000035,342.4136301000035,m,1,0.44897139999375213,342.890925300002,343.400072000004,,,001,fabi,2022-12-31_01h35.07.697,MentalRot,2022.2.1,60.042822541204046,
0,225,n,n,225,3,7,55,10,,,,,,,,,,,343.400072000004,343.400072000004,343.400072000004,343.400072000004,343.400072000004,n,1,0.7504326999987825,344.174233800004,344.6798181000049,,,001,fabi,2022-12-31_01h35.07.697,MentalRot,2022.2.1,60.042822541204046,
0,180,n,n,180,3,8,56,8,,,,,,,,,,,344.6798181000049,344.6798181000049,344.6798181000049,344.6798181000049,344.6798181000049,n,1,0.6788421999954153,345.37451750000037,345.8815941000066,,,001,fabi,2022-12-31_01h35.07.697,MentalRot,2022.2.1,60.042822541204046,
0,315,n,n,315,3,9,57,14,,,,,,,,,,,345.8815941000066,345.8815941000066,345.8815941000066,345.8815941000066,345.8815941000066,n,1,0.5567849999933969,346.45765600000595,346.9633498000039,,,001,fabi,2022-12-31_01h35.07.697,MentalRot,2022.2.1,60.042822541204046,
0,135,y,m,135,3,10,58,7,,,,,,,,,,,346.9633498000039,346.9633498000039,346.9633498000039,346.9633498000039,346.9633498000039,m,1,0.596109099999012,347.59067780000623,348.0971501000022,,,001,fabi,2022-12-31_01h35.07.697,MentalRot,2022.2.1,60.042822541204046,
0,90,y,m,90,3,11,59,5,,,,,,,,,,,348.0971501000022,348.0971501000022,348.0971501000022,348.0971501000022,348.0971501000022,m,1,0.6607287999941036,348.77416030000313,349.28073890000087,,,001,fabi,2022-12-31_01h35.07.697,MentalRot,2022.2.1,60.042822541204046,
0,270,y,m,270,3,12,60,13,,,,,,,,,,,349.28073890000087,349.28073890000087,349.28073890000087,349.28073890000087,349.28073890000087,m,1,0.6933989999961341,349.9905810000055,350.49839910000446,,,001,fabi,2022-12-31_01h35.07.697,MentalRot,2022.2.1,60.042822541204046,
0,270,n,n,270,3,13,61,12,,,,,,,,,,,350.49839910000446,350.49839910000446,350.49839910000446,350.49839910000446,350.49839910000446,n,1,0.7476898999957484,351.2738795000041,351.78261580000253,,,001,fabi,2022-12-31_01h35.07.697,MentalRot,2022.2.1,60.042822541204046,
0,180,y,m,180,3,14,62,9,,,,,,,,,,,351.78261580000253,351.78261580000253,351.78261580000253,351.78261580000253,351.78261580000253,m,1,0.5917882999929134,352.39059100000304,352.8978946000061,,,001,fabi,2022-12-31_01h35.07.697,MentalRot,2022.2.1,60.042822541204046,
0,90,n,n,90,3,15,63,4,,,,,,,,,,,352.8978946000061,352.8978946000061,352.8978946000061,352.8978946000061,352.8978946000061,n,1,0.6200517999968724,353.54043210000236,354.04671750000125,,,001,fabi,2022-12-31_01h35.07.697,MentalRot,2022.2.1,60.042822541204046,
0,135,y,m,135,4,0,64,7,,,,,,,,,,,354.04671750000125,354.04671750000125,354.04671750000125,354.04671750000125,354.04671750000125,m,1,0.5440578999987338,354.60703680000006,355.11458540000604,,,001,fabi,2022-12-31_01h35.07.697,MentalRot,2022.2.1,60.042822541204046,
0,90,n,n,90,4,1,65,4,,,,,,,,,,,355.11458540000604,355.11458540000604,355.11458540000604,355.11458540000604,355.11458540000604,n,1,0.7791823000006843,355.9237525999997,356.4290453000067,,,001,fabi,2022-12-31_01h35.07.697,MentalRot,2022.2.1,60.042822541204046,
0,45,y,m,45,4,2,66,3,,,,,,,,,,,356.4290453000067,356.4290453000067,356.4290453000067,356.4290453000067,356.4290453000067,m,1,0.5133156999945641,356.97379610000644,357.4805179000032,,,001,fabi,2022-12-31_01h35.07.697,MentalRot,2022.2.1,60.042822541204046,
0,315,y,m,315,4,3,67,15,,,,,,,,,,,357.4805179000032,357.4805179000032,357.4805179000032,357.4805179000032,357.4805179000032,m,1,0.5253334000008181,358.02376260000165,358.5281493000002,,,001,fabi,2022-12-31_01h35.07.697,MentalRot,2022.2.1,60.042822541204046,
0,0,y,m,0,4,4,68,1,,,,,,,,,,,358.5281493000002,358.5281493000002,358.5281493000002,358.5281493000002,358.5281493000002,m,1,0.5097302999929525,359.0573218999998,359.56349090000003,,,001,fabi,2022-12-31_01h35.07.697,MentalRot,2022.2.1,60.042822541204046,
0,225,n,n,225,4,5,69,10,,,,,,,,,,,359.56349090000003,359.56349090000003,359.56349090000003,359.56349090000003,359.56349090000003,n,1,0.6436298999979044,360.22351880000497,360.72964440000214,,,001,fabi,2022-12-31_01h35.07.697,MentalRot,2022.2.1,60.042822541204046,
0,180,n,n,180,4,6,70,8,,,,,,,,,,,360.72964440000214,360.72964440000214,360.72964440000214,360.72964440000214,360.72964440000214,n,1,0.973319899996568,361.72349410000606,362.2299759000016,,,001,fabi,2022-12-31_01h35.07.697,MentalRot,2022.2.1,60.042822541204046,
0,270,n,n,270,4,7,71,12,,,,,,,,,,,362.2299759000016,362.2299759000016,362.2299759000016,362.2299759000016,362.2299759000016,n,1,0.6575790999995661,362.9068092000016,363.4128880000062,,,001,fabi,2022-12-31_01h35.07.697,MentalRot,2022.2.1,60.042822541204046,
0,225,y,m,225,4,8,72,11,,,,,,,,,,,363.4128880000062,363.4128880000062,363.4128880000062,363.4128880000062,363.4128880000062,m,1,0.5049023000028683,363.9402349000011,364.44518520000565,,,001,fabi,2022-12-31_01h35.07.697,MentalRot,2022.2.1,60.042822541204046,
0,90,y,m,90,4,9,73,5,,,,,,,,,,,364.44518520000565,364.44518520000565,364.44518520000565,364.44518520000565,364.44518520000565,m,1,0.6648009999989881,365.13992600000347,365.6462660000034,,,001,fabi,2022-12-31_01h35.07.697,MentalRot,2022.2.1,60.042822541204046,
0,315,n,n,315,4,10,74,14,,,,,,,,,,,365.6462660000034,365.6462660000034,365.6462660000034,365.6462660000034,365.6462660000034,n,1,0.591713299996627,366.2564960000018,366.76284000000305,,,001,fabi,2022-12-31_01h35.07.697,MentalRot,2022.2.1,60.042822541204046,
0,180,y,m,180,4,11,75,9,,,,,,,,,,,366.76284000000305,366.76284000000305,366.76284000000305,366.76284000000305,366.76284000000305,m,1,0.6510304000039469,367.43986900000164,367.946446300004,,,001,fabi,2022-12-31_01h35.07.697,MentalRot,2022.2.1,60.042822541204046,
0,270,y,m,270,4,12,76,13,,,,,,,,,,,367.946446300004,367.946446300004,367.946446300004,367.946446300004,367.946446300004,m,1,0.8361554000002798,368.80629469999985,369.31762690000323,,,001,fabi,2022-12-31_01h35.07.697,MentalRot,2022.2.1,60.042822541204046,
0,135,n,n,135,4,13,77,6,,,,,,,,,,,369.31762690000323,369.31762690000323,369.31762690000323,369.31762690000323,369.31762690000323,n,1,0.8321260999946389,370.1728979000036,370.67810800000007,,,001,fabi,2022-12-31_01h35.07.697,MentalRot,2022.2.1,60.042822541204046,
0,0,n,n,0,4,14,78,0,,,,,,,,,,,370.67810800000007,370.67810800000007,370.67810800000007,370.67810800000007,370.67810800000007,n,1,0.6155981999982032,371.3233188000013,371.8238280000005,,,001,fabi,2022-12-31_01h35.07.697,MentalRot,2022.2.1,60.042822541204046,
0,45,n,n,45,4,15,79,2,,,,,,,,,,,371.8238280000005,371.8238280000005,371.8238280000005,371.8238280000005,371.8238280000005,n,1,0.6140689000021666,372.4560802000051,372.9611564000006,,,001,fabi,2022-12-31_01h35.07.697,MentalRot,2022.2.1,60.042822541204046,
0,315,y,m,315,5,0,80,15,,,,,,,,,,,372.9611564000006,372.9611564000006,372.9611564000006,372.9611564000006,372.9611564000006,m,1,0.5406367999967188,373.5230589000057,374.0286799000023,,,001,fabi,2022-12-31_01h35.07.697,MentalRot,2022.2.1,60.042822541204046,
0,135,y,m,135,5,1,81,7,,,,,,,,,,,374.0286799000023,374.0286799000023,374.0286799000023,374.0286799000023,374.0286799000023,m,1,0.6424046000029193,374.68936640000175,375.1959000000061,,,001,fabi,2022-12-31_01h35.07.697,MentalRot,2022.2.1,60.042822541204046,
0,90,n,n,90,5,2,82,4,,,,,,,,,,,375.1959000000061,375.1959000000061,375.1959000000061,375.1959000000061,375.1959000000061,n,1,0.6748226999989129,375.88944710000214,376.3962376000054,,,001,fabi,2022-12-31_01h35.07.697,MentalRot,2022.2.1,60.042822541204046,
0,180,y,m,180,5,3,83,9,,,,,,,,,,,376.3962376000054,376.3962376000054,376.3962376000054,376.3962376000054,376.3962376000054,m,1,0.6416192999968189,377.056734100006,377.56200450000324,,,001,fabi,2022-12-31_01h35.07.697,MentalRot,2022.2.1,60.042822541204046,
0,270,y,m,270,5,4,84,13,,,,,,,,,,,377.56200450000324,377.56200450000324,377.56200450000324,377.56200450000324,377.56200450000324,m,1,0.6677545999991708,378.25600300000224,378.7620511000059,,,001,fabi,2022-12-31_01h35.07.697,MentalRot,2022.2.1,60.042822541204046,
0,0,n,n,0,5,5,85,0,,,,,,,,,,,378.7620511000059,378.7620511000059,378.7620511000059,378.7620511000059,378.7620511000059,n,1,0.6929687000010745,379.4726423000029,379.9818452000036,,,001,fabi,2022-12-31_01h35.07.697,MentalRot,2022.2.1,60.042822541204046,
0,180,n,n,180,5,6,86,8,,,,,,,,,,,379.9818452000036,379.9818452000036,379.9818452000036,379.9818452000036,379.9818452000036,n,1,0.7368034999963129,380.73929590000625,381.24892950000503,,,001,fabi,2022-12-31_01h35.07.697,MentalRot,2022.2.1,60.042822541204046,
0,90,y,m,90,5,7,87,5,,,,,,,,,,,381.24892950000503,381.24892950000503,381.24892950000503,381.24892950000503,381.24892950000503,m,1,0.5731922999984818,381.83919980000064,382.3446417000014,,,001,fabi,2022-12-31_01h35.07.697,MentalRot,2022.2.1,60.042822541204046,
0,225,n,n,225,5,8,88,10,,,,,,,,,,,382.3446417000014,382.3446417000014,382.3446417000014,382.3446417000014,382.3446417000014,n,1,0.8052124999958323,383.1728237000061,383.68337650000467,,,001,fabi,2022-12-31_01h35.07.697,MentalRot,2022.2.1,60.042822541204046,
0,45,n,n,45,5,9,89,2,,,,,,,,,,,383.68337650000467,383.68337650000467,383.68337650000467,383.68337650000467,383.68337650000467,n,1,0.6105017999943811,384.3223963000055,384.8289447000061,,,001,fabi,2022-12-31_01h35.07.697,MentalRot,2022.2.1,60.042822541204046,
0,45,y,m,45,5,10,90,3,,,,,,,,,,,384.8289447000061,384.8289447000061,384.8289447000061,384.8289447000061,384.8289447000061,m,1,0.5132722000053036,385.3726186000058,385.8783661000052,,,001,fabi,2022-12-31_01h35.07.697,MentalRot,2022.2.1,60.042822541204046,
0,270,n,n,270,5,11,91,12,,,,,,,,,,,385.8783661000052,385.8783661000052,385.8783661000052,385.8783661000052,385.8783661000052,n,1,0.6237490000057733,386.522466800001,387.02950400000555,,,001,fabi,2022-12-31_01h35.07.697,MentalRot,2022.2.1,60.042822541204046,
0,135,n,n,135,5,12,92,6,,,,,,,,,,,387.02950400000555,387.02950400000555,387.02950400000555,387.02950400000555,387.02950400000555,n,1,0.6166130999990855,387.6722671000025,388.17801760000293,,,001,fabi,2022-12-31_01h35.07.697,MentalRot,2022.2.1,60.042822541204046,
0,0,y,m,0,5,13,93,1,,,,,,,,,,,388.17801760000293,388.17801760000293,388.17801760000293,388.17801760000293,388.17801760000293,m,1,0.700587599996652,388.90555210000457,389.4103912000064,,,001,fabi,2022-12-31_01h35.07.697,MentalRot,2022.2.1,60.042822541204046,
0,225,y,m,225,5,14,94,11,,,,,,,,,,,389.4103912000064,389.4103912000064,389.4103912000064,389.4103912000064,389.4103912000064,n,0,0.5971369999970193,390.03952990000107,390.54508270000224,,,001,fabi,2022-12-31_01h35.07.697,MentalRot,2022.2.1,60.042822541204046,
0,315,n,n,315,5,15,95,14,,,,,,,,,,,390.54508270000224,390.54508270000224,390.54508270000224,390.54508270000224,390.54508270000224,n,1,0.5567191999944043,391.1223275000011,391.6295725000018,,,001,fabi,2022-12-31_01h35.07.697,MentalRot,2022.2.1,60.042822541204046,
0,0,y,m,0,6,0,96,1,,,,,,,,,,,391.6295725000018,391.6295725000018,391.6295725000018,391.6295725000018,391.6295725000018,m,1,0.52875469999708,392.1887021000002,392.69889330000296,,,001,fabi,2022-12-31_01h35.07.697,MentalRot,2022.2.1,60.042822541204046,
0,45,y,m,45,6,1,97,3,,,,,,,,,,,392.69889330000296,392.69889330000296,392.69889330000296,392.69889330000296,392.69889330000296,m,1,0.5720740000033402,393.288681500002,393.796139500002,,,001,fabi,2022-12-31_01h35.07.697,MentalRot,2022.2.1,60.042822541204046,
0,0,n,n,0,6,2,98,0,,,,,,,,,,,393.796139500002,393.796139500002,393.796139500002,393.796139500002,393.796139500002,n,1,0.6177083000002312,394.43896680000034,394.9463367000062,,,001,fabi,2022-12-31_01h35.07.697,MentalRot,2022.2.1,60.042822541204046,
0,90,y,m,90,6,3,99,5,,,,,,,,,,,394.9463367000062,394.9463367000062,394.9463367000062,394.9463367000062,394.9463367000062,m,1,0.5488838999954169,395.52182030000404,396.0283411000055,,,001,fabi,2022-12-31_01h35.07.697,MentalRot,2022.2.1,60.042822541204046,
0,135,y,m,135,6,4,100,7,,,,,,,,,,,396.0283411000055,396.0283411000055,396.0283411000055,396.0283411000055,396.0283411000055,m,1,0.7462502999987919,396.8051876000027,397.31114840000373,,,001,fabi,2022-12-31_01h35.07.697,MentalRot,2022.2.1,60.042822541204046,
0,180,n,n,180,6,5,101,8,,,,,,,,,,,397.31114840000373,397.31114840000373,397.31114840000373,397.31114840000373,397.31114840000373,n,1,0.8466169000021182,398.18818830000237,398.69536530000187,,,001,fabi,2022-12-31_01h35.07.697,MentalRot,2022.2.1,60.042822541204046,
0,315,n,n,315,6,6,102,14,,,,,,,,,,,398.69536530000187,398.69536530000187,398.69536530000187,398.69536530000187,398.69536530000187,n,1,0.6945003000000725,399.42171940000117,399.9260210000066,,,001,fabi,2022-12-31_01h35.07.697,MentalRot,2022.2.1,60.042822541204046,
0,135,n,n,135,6,7,103,6,,,,,,,,,,,399.9260210000066,399.9260210000066,399.9260210000066,399.9260210000066,399.9260210000066,n,1,0.6006775999994716,400.5551446000027,401.06159520000074,,,001,fabi,2022-12-31_01h35.07.697,MentalRot,2022.2.1,60.042822541204046,
0,180,y,m,180,6,8,104,9,,,,,,,,,,,401.06159520000074,401.06159520000074,401.06159520000074,401.06159520000074,401.06159520000074,m,1,0.6735012999997707,401.75486630000523,402.26134370000364,,,001,fabi,2022-12-31_01h35.07.697,MentalRot,2022.2.1,60.042822541204046,
0,90,n,n,90,6,9,105,4,,,,,,,,,,,402.26134370000364,402.26134370000364,402.26134370000364,402.26134370000364,402.26134370000364,n,1,0.6648793999993359,402.95518670000456,403.46436130000075,,,001,fabi,2022-12-31_01h35.07.697,MentalRot,2022.2.1,60.042822541204046,
0,315,y,m,315,6,10,106,15,,,,,,,,,,,403.46436130000075,403.46436130000075,403.46436130000075,403.46436130000075,403.46436130000075,m,1,0.6540061000050628,404.1378868000029,404.6451626000053,,,001,fabi,2022-12-31_01h35.07.697,MentalRot,2022.2.1,60.042822541204046,
0,225,y,m,225,6,11,107,11,,,,,,,,,,,404.6451626000053,404.6451626000053,404.6451626000053,404.6451626000053,404.6451626000053,m,1,0.712685300000885,405.38812170000165,405.8940436000048,,,001,fabi,2022-12-31_01h35.07.697,MentalRot,2022.2.1,60.042822541204046,
0,270,n,n,270,6,12,108,12,,,,,,,,,,,405.8940436000048,405.8940436000048,405.8940436000048,405.8940436000048,405.8940436000048,n,1,0.768225200001325,406.6879073000018,407.197971600006,,,001,fabi,2022-12-31_01h35.07.697,MentalRot,2022.2.1,60.042822541204046,
0,270,y,m,270,6,13,109,13,,,,,,,,,,,407.197971600006,407.197971600006,407.197971600006,407.197971600006,407.197971600006,m,1,0.7286289999974542,407.9547581000006,408.45507550000184,,,001,fabi,2022-12-31_01h35.07.697,MentalRot,2022.2.1,60.042822541204046,
0,45,n,n,45,6,14,110,2,,,,,,,,,,,408.45507550000184,408.45507550000184,408.45507550000184,408.45507550000184,408.45507550000184,n,1,0.7032107999984873,409.18766880000476,409.690671700002,,,001,fabi,2022-12-31_01h35.07.697,MentalRot,2022.2.1,60.042822541204046,
0,225,n,n,225,6,15,111,10,,,,,,,,,,,409.690671700002,409.690671700002,409.690671700002,409.690671700002,409.690671700002,n,1,1.6272979999994277,411.33778170000005,411.8452382000032,,,001,fabi,2022-12-31_01h35.07.697,MentalRot,2022.2.1,60.042822541204046,
0,0,y,m,0,7,0,112,1,,,,,,,,,,,411.8452382000032,411.8452382000032,411.8452382000032,411.8452382000032,411.8452382000032,m,1,0.5049294000054942,412.37107160000596,412.8778308000037,,,001,fabi,2022-12-31_01h35.07.697,MentalRot,2022.2.1,60.042822541204046,
0,45,y,m,45,7,1,113,3,,,,,,,,,,,412.8778308000037,412.8778308000037,412.8778308000037,412.8778308000037,412.8778308000037,m,1,0.53715120000561,413.43810340000346,413.94656360000226,,,001,fabi,2022-12-31_01h35.07.697,MentalRot,2022.2.1,60.042822541204046,
0,135,y,m,135,7,2,114,7,,,,,,,,,,,413.94656360000226,413.94656360000226,413.94656360000226,413.94656360000226,413.94656360000226,m,1,0.6277727999986382,414.6042535000015,415.11091360000137,,,001,fabi,2022-12-31_01h35.07.697,MentalRot,2022.2.1,60.042822541204046,
0,180,y,m,180,7,3,115,9,,,,,,,,,,,415.11091360000137,415.11091360000137,415.11091360000137,415.11091360000137,415.11091360000137,m,1,0.8071510000008857,415.9378530000031,416.4432627999995,,,001,fabi,2022-12-31_01h35.07.697,MentalRot,2022.2.1,60.042822541204046,
0,225,n,n,225,7,4,116,10,,,,,,,,,,,416.4432627999995,416.4432627999995,416.4432627999995,416.4432627999995,416.4432627999995,n,1,0.8197265000053449,417.28785320000316,417.7935043000034,,,001,fabi,2022-12-31_01h35.07.697,MentalRot,2022.2.1,60.042822541204046,
0,45,n,n,45,7,5,117,2,,,,,,,,,,,417.7935043000034,417.7935043000034,417.7935043000034,417.7935043000034,417.7935043000034,n,1,0.7095565999989049,418.52102330000343,419.02827040000557,,,001,fabi,2022-12-31_01h35.07.697,MentalRot,2022.2.1,60.042822541204046,
0,0,n,n,0,7,6,118,0,,,,,,,,,,,419.02827040000557,419.02827040000557,419.02827040000557,419.02827040000557,419.02827040000557,n,1,0.5388524000009056,419.5875104000006,420.0885935000042,,,001,fabi,2022-12-31_01h35.07.697,MentalRot,2022.2.1,60.042822541204046,
0,270,n,n,270,7,7,119,12,,,,,,,,,,,420.0885935000042,420.0885935000042,420.0885935000042,420.0885935000042,420.0885935000042,n,1,0.7176322000013897,420.8378226000059,421.34026620000077,,,001,fabi,2022-12-31_01h35.07.697,MentalRot,2022.2.1,60.042822541204046,
0,135,n,n,135,7,8,120,6,,,,,,,,,,,421.34026620000077,421.34026620000077,421.34026620000077,421.34026620000077,421.34026620000077,n,1,0.6575746999951662,422.0206213000056,422.52742690000014,,,001,fabi,2022-12-31_01h35.07.697,MentalRot,2022.2.1,60.042822541204046,
0,180,n,n,180,7,9,121,8,,,,,,,,,,,422.52742690000014,422.52742690000014,422.52742690000014,422.52742690000014,422.52742690000014,n,1,0.6709399000028498,423.2204673000015,423.72565620000387,,,001,fabi,2022-12-31_01h35.07.697,MentalRot,2022.2.1,60.042822541204046,
0,225,y,m,225,7,10,122,11,,,,,,,,,,,423.72565620000387,423.72565620000387,423.72565620000387,423.72565620000387,423.72565620000387,m,1,0.6487973999974201,424.4038096000004,424.9104503000053,,,001,fabi,2022-12-31_01h35.07.697,MentalRot,2022.2.1,60.042822541204046,
0,315,n,n,315,7,11,123,14,,,,,,,,,,,424.9104503000053,424.9104503000053,424.9104503000053,424.9104503000053,424.9104503000053,n,1,0.5838985999944271,425.5205077000064,426.02534390000073,,,001,fabi,2022-12-31_01h35.07.697,MentalRot,2022.2.1,60.042822541204046,
0,315,y,m,315,7,12,124,15,,,,,,,,,,,426.02534390000073,426.02534390000073,426.02534390000073,426.02534390000073,426.02534390000073,m,1,0.565198700001929,426.6205633999998,427.12753660000453,,,001,fabi,2022-12-31_01h35.07.697,MentalRot,2022.2.1,60.042822541204046,
0,90,y,m,90,7,13,125,5,,,,,,,,,,,427.12753660000453,427.12753660000453,427.12753660000453,427.12753660000453,427.12753660000453,m,1,0.8542436999996426,428.0036567999996,428.51241070000106,,,001,fabi,2022-12-31_01h35.07.697,MentalRot,2022.2.1,60.042822541204046,
0,90,n,n,90,7,14,126,4,,,,,,,,,,,428.51241070000106,428.51241070000106,428.51241070000106,428.51241070000106,428.51241070000106,n,1,0.6060663999960525,429.1369659000047,429.6457811,,,001,fabi,2022-12-31_01h35.07.697,MentalRot,2022.2.1,60.042822541204046,
0,270,y,m,270,7,15,127,13,,,,,,,,,,,429.6457811,429.6457811,429.6457811,429.6457811,429.6457811,m,1,0.7049752000020817,430.370560000003,430.8764536000017,,,001,fabi,2022-12-31_01h35.07.697,MentalRot,2022.2.1,60.042822541204046,
0,0,y,m,0,8,0,128,1,,,,,,,,,,,430.8764536000017,430.8764536000017,430.8764536000017,430.8764536000017,430.8764536000017,m,1,0.5224537000030978,431.42030030000024,431.92559240000264,,,001,fabi,2022-12-31_01h35.07.697,MentalRot,2022.2.1,60.042822541204046,
0,225,y,m,225,8,1,129,11,,,,,,,,,,,431.92559240000264,431.92559240000264,431.92559240000264,431.92559240000264,431.92559240000264,m,1,0.6003647999968962,432.55392890000076,433.0578958000042,,,001,fabi,2022-12-31_01h35.07.697,MentalRot,2022.2.1,60.042822541204046,
0,135,y,m,135,8,2,130,7,,,,,,,,,,,433.0578958000042,433.0578958000042,433.0578958000042,433.0578958000042,433.0578958000042,m,1,0.5960479999994277,433.6701405000058,434.1773384000044,,,001,fabi,2022-12-31_01h35.07.697,MentalRot,2022.2.1,60.042822541204046,
0,90,n,n,90,8,3,131,4,,,,,,,,,,,434.1773384000044,434.1773384000044,434.1773384000044,434.1773384000044,434.1773384000044,n,1,0.653445299998566,434.85344000000623,435.36020900000585,,,001,fabi,2022-12-31_01h35.07.697,MentalRot,2022.2.1,60.042822541204046,
0,90,y,m,90,8,4,132,5,,,,,,,,,,,435.36020900000585,435.36020900000585,435.36020900000585,435.36020900000585,435.36020900000585,m,1,0.5261938999974518,435.90348220000305,436.4125717000061,,,001,fabi,2022-12-31_01h35.07.697,MentalRot,2022.2.1,60.042822541204046,
0,225,n,n,225,8,5,133,10,,,,,,,,,,,436.4125717000061,436.4125717000061,436.4125717000061,436.4125717000061,436.4125717000061,n,1,0.7384921999982907,437.16980210000474,437.67837520000467,,,001,fabi,2022-12-31_01h35.07.697,MentalRot,2022.2.1,60.042822541204046,
0,45,y,m,45,8,6,134,3,,,,,,,,,,,437.67837520000467,437.67837520000467,437.67837520000467,437.67837520000467,437.67837520000467,m,1,0.5113076999987243,438.219992600003,438.7209653000027,,,001,fabi,2022-12-31_01h35.07.697,MentalRot,2022.2.1,60.042822541204046,
0,270,y,m,270,8,7,135,13,,,,,,,,,,,438.7209653000027,438.7209653000027,438.7209653000027,438.7209653000027,438.7209653000027,m,1,0.9495285999946645,439.7033678000007,440.2087058000034,,,001,fabi,2022-12-31_01h35.07.697,MentalRot,2022.2.1,60.042822541204046,
0,315,y,m,315,8,8,136,15,,,,,,,,,,,440.2087058000034,440.2087058000034,440.2087058000034,440.2087058000034,440.2087058000034,m,1,0.5335744000039995,440.7701675000062,441.27151589999994,,,001,fabi,2022-12-31_01h35.07.697,MentalRot,2022.2.1,60.042822541204046,
0,180,y,m,180,8,9,137,9,,,,,,,,,,,441.27151589999994,441.27151589999994,441.27151589999994,441.27151589999994,441.27151589999994,m,1,0.566681600001175,441.8694794000039,442.3767958000026,,,001,fabi,2022-12-31_01h35.07.697,MentalRot,2022.2.1,60.042822541204046,
0,0,n,n,0,8,10,138,0,,,,,,,,,,,442.3767958000026,442.3767958000026,442.3767958000026,442.3767958000026,442.3767958000026,n,1,0.71707669999887,443.1198237999997,443.6246417000002,,,001,fabi,2022-12-31_01h35.07.697,MentalRot,2022.2.1,60.042822541204046,
0,135,n,n,135,8,11,139,6,,,,,,,,,,,443.6246417000002,443.6246417000002,443.6246417000002,443.6246417000002,443.6246417000002,n,1,0.6533269999999902,444.3029500000048,444.8093588000047,,,001,fabi,2022-12-31_01h35.07.697,MentalRot,2022.2.1,60.042822541204046,
0,180,n,n,180,8,12,140,8,,,,,,,,,,,444.8093588000047,444.8093588000047,444.8093588000047,444.8093588000047,444.8093588000047,n,1,0.8691477000029408,445.7030031000031,446.2096137000044,,,001,fabi,2022-12-31_01h35.07.697,MentalRot,2022.2.1,60.042822541204046,
0,45,n,n,45,8,13,141,2,,,,,,,,,,,446.2096137000044,446.2096137000044,446.2096137000044,446.2096137000044,446.2096137000044,n,1,0.5561078000027919,446.78652530000545,447.29269440000644,,,001,fabi,2022-12-31_01h35.07.697,MentalRot,2022.2.1,60.042822541204046,
0,270,n,n,270,8,14,142,12,,,,,,,,,,,447.29269440000644,447.29269440000644,447.29269440000644,447.29269440000644,447.29269440000644,n,1,0.6895099000030314,448.0031220000019,448.50994450000144,,,001,fabi,2022-12-31_01h35.07.697,MentalRot,2022.2.1,60.042822541204046,
0,315,n,n,315,8,15,143,14,,,,,,,,,,,448.50994450000144,448.50994450000144,448.50994450000144,448.50994450000144,448.50994450000144,n,1,1.0095021999950404,449.5360481000025,450.04329380000127,,,001,fabi,2022-12-31_01h35.07.697,MentalRot,2022.2.1,60.042822541204046,
0,270,y,m,270,9,0,144,13,,,,,,,,,,,450.04329380000127,450.04329380000127,450.04329380000127,450.04329380000127,450.04329380000127,m,1,0.5716848000010941,450.63604040000064,451.14466650000395,,,001,fabi,2022-12-31_01h35.07.697,MentalRot,2022.2.1,60.042822541204046,
0,0,y,m,0,9,1,145,1,,,,,,,,,,,451.14466650000395,451.14466650000395,451.14466650000395,451.14466650000395,451.14466650000395,m,1,0.5186728999979096,451.68654360000073,452.1912982000067,,,001,fabi,2022-12-31_01h35.07.697,MentalRot,2022.2.1,60.042822541204046,
0,135,n,n,135,9,2,146,6,,,,,,,,,,,452.1912982000067,452.1912982000067,452.1912982000067,452.1912982000067,452.1912982000067,n,1,0.8465044000040507,453.0695466000034,453.57518960000016,,,001,fabi,2022-12-31_01h35.07.697,MentalRot,2022.2.1,60.042822541204046,
0,270,n,n,270,9,3,147,12,,,,,,,,,,,453.57518960000016,453.57518960000016,453.57518960000016,453.57518960000016,453.57518960000016,n,1,0.694690600001195,454.2862044000067,454.7926118000032,,,001,fabi,2022-12-31_01h35.07.697,MentalRot,2022.2.1,60.042822541204046,
0,225,y,m,225,9,4,148,11,,,,,,,,,,,454.7926118000032,454.7926118000032,454.7926118000032,454.7926118000032,454.7926118000032,m,1,0.6141523999976926,455.4356590000025,455.9446876000002,,,001,fabi,2022-12-31_01h35.07.697,MentalRot,2022.2.1,60.042822541204046,
0,90,y,m,90,9,5,149,5,,,,,,,,,,,455.9446876000002,455.9446876000002,455.9446876000002,455.9446876000002,455.9446876000002,m,1,0.5891527999992832,456.55253160000575,457.0596568000037,,,001,fabi,2022-12-31_01h35.07.697,MentalRot,2022.2.1,60.042822541204046,
0,180,y,m,180,9,6,150,9,,,,,,,,,,,457.0596568000037,457.0596568000037,457.0596568000037,457.0596568000037,457.0596568000037,m,1,1.0744970000014291,458.15229560000444,458.6578781000062,,,001,fabi,2022-12-31_01h35.07.697,MentalRot,2022.2.1,60.042822541204046,
0,135,y,m,135,9,7,151,7,,,,,,,,,,,458.6578781000062,458.6578781000062,458.6578781000062,458.6578781000062,458.6578781000062,m,1,0.5894943999956013,459.26896770000167,459.77631540000584,,,001,fabi,2022-12-31_01h35.07.697,MentalRot,2022.2.1,60.042822541204046,
0,180,n,n,180,9,8,152,8,,,,,,,,,,,459.77631540000584,459.77631540000584,459.77631540000584,459.77631540000584,459.77631540000584,n,1,0.7095759000003454,460.5025808999999,461.0087851999997,,,001,fabi,2022-12-31_01h35.07.697,MentalRot,2022.2.1,60.042822541204046,
0,315,n,n,315,9,9,153,14,,,,,,,,,,,461.0087851999997,461.0087851999997,461.0087851999997,461.0087851999997,461.0087851999997,n,1,0.558201600004395,461.58560790000047,462.09212590000243,,,001,fabi,2022-12-31_01h35.07.697,MentalRot,2022.2.1,60.042822541204046,
0,45,n,n,45,9,10,154,2,,,,,,,,,,,462.09212590000243,462.09212590000243,462.09212590000243,462.09212590000243,462.09212590000243,n,1,0.6097204000034253,462.71904429999995,463.22559160000674,,,001,fabi,2022-12-31_01h35.07.697,MentalRot,2022.2.1,60.042822541204046,
0,45,y,m,45,9,11,155,3,,,,,,,,,,,463.22559160000674,463.22559160000674,463.22559160000674,463.22559160000674,463.22559160000674,m,1,0.5250359999990906,463.76870990000316,464.2761315000025,,,001,fabi,2022-12-31_01h35.07.697,MentalRot,2022.2.1,60.042822541204046,
0,225,n,n,225,9,12,156,10,,,,,,,,,,,464.2761315000025,464.2761315000025,464.2761315000025,464.2761315000025,464.2761315000025,n,1,0.8584455999953207,465.1518670000005,465.65712200000416,,,001,fabi,2022-12-31_01h35.07.697,MentalRot,2022.2.1,60.042822541204046,
0,90,n,n,90,9,13,157,4,,,,,,,,,,,465.65712200000416,465.65712200000416,465.65712200000416,465.65712200000416,465.65712200000416,n,1,0.6705338999963715,466.3519136000032,466.857855000002,,,001,fabi,2022-12-31_01h35.07.697,MentalRot,2022.2.1,60.042822541204046,
0,315,y,m,315,9,14,158,15,,,,,,,,,,,466.857855000002,466.857855000002,466.857855000002,466.857855000002,466.857855000002,m,1,0.5893381999994745,467.46837960000266,467.975237000006,,,001,fabi,2022-12-31_01h35.07.697,MentalRot,2022.2.1,60.042822541204046,
0,0,n,n,0,9,15,159,0,,,,,,,,,,,467.975237000006,467.975237000006,467.975237000006,467.975237000006,467.975237000006,n,1,0.5346008999986225,468.53528980000556,469.03547660000186,,,001,fabi,2022-12-31_01h35.07.697,MentalRot,2022.2.1,60.042822541204046,
,,,,,,,,,,,,,,,,,,,,,,,,,,,,,469.03547660000186,469.03547660000186,,,,,,,
