leftori,rightori,same,corrAns,angle,trials.thisRepN,trials.thisTrialN,trials.thisN,trials.thisIndex,instr_txt_1.started,instr_key_1.started,instr_key_1.keys,instr_key_1.rt,image_L_3.started,image_R_3.started,instr_txt_2.started,instr_key_2.started,mini_pause_2.started,mini_pause_2.stopped,image_L.started,image_R.started,response.started,main_instr.started,trial_count.started,response.keys,response.corr,response.rt,mini_pause.started,mini_pause.stopped,end_txt.started,end_key.started,session,participant,date,expName,psychopyVersion,frameRate,
,,,,,,,,,84.18417480000062,84.18417480000062,m,3.9827962999988813,,,,,,,,,,,,,,,,,,,001,gabi,2022-12-31_01h40.20.488,MentalRot,2022.2.1,59.88525984077358,
0,270,n,n,270,0,0,0,12,,,,,88.26719680000679,88.26719680000679,88.26719680000679,88.26719680000679,89.27186070000607,90.79626290000306,90.79626290000306,90.79626290000306,90.79626290000306,90.79626290000306,90.79626290000306,n,1,0.8590135999911581,91.67152740000165,92.17950550000387,,,001,gabi,2022-12-31_01h40.20.488,MentalRot,2022.2.1,59.88525984077358,
0,315,y,m,315,0,1,1,15,,,,,,,,,,,92.17950550000387,92.17950550000387,92.17950550000387,92.17950550000387,92.17950550000387,m,1,0.539564499995322,92.7382687000063,93.24371240000619,,,001,gabi,2022-12-31_01h40.20.488,MentalRot,2022.2.1,59.88525984077358,
0,180,n,n,180,0,2,2,8,,,,,,,,,,,93.24371240000619,93.24371240000619,93.24371240000619,93.24371240000619,93.24371240000619,n,1,0.8672899000011967,94.13837220000278,94.64735840000503,,,001,gabi,2022-12-31_01h40.20.488,MentalRot,2022.2.1,59.88525984077358,
0,315,n,n,315,0,3,3,14,,,,,,,,,,,94.64735840000503,94.64735840000503,94.64735840000503,94.64735840000503,94.64735840000503,n,1,0.567401799999061,95.23834260000149,95.7460116000002,,,001,gabi,2022-12-31_01h40.20.488,MentalRot,2022.2.1,59.88525984077358,
0,180,y,m,180,0,4,4,9,,,,,,,,,,,95.7460116000002,95.7460116000002,95.7460116000002,95.7460116000002,95.7460116000002,m,1,0.8372344999952475,96.60461270000087,97.10497469999973,,,001,gabi,2022-12-31_01h40.20.488,MentalRot,2022.2.1,59.88525984077358,
0,0,n,n,0,0,5,5,0,,,,,,,,,,,97.10497469999973,97.10497469999973,97.10497469999973,97.10497469999973,97.10497469999973,n,1,0.5666185999943991,97.68767190000653,98.19307560000016,,,001,gabi,2022-12-31_01h40.20.488,MentalRot,2022.2.1,59.88525984077358,
0,225,y,m,225,0,6,6,11,,,,,,,,,,,98.19307560000016,98.19307560000016,98.19307560000016,98.19307560000016,98.19307560000016,m,1,0.6385585999960313,98.85428380000667,99.35824290000164,,,001,gabi,2022-12-31_01h40.20.488,MentalRot,2022.2.1,59.88525984077358,
0,225,n,n,225,0,7,7,10,,,,,,,,,,,99.35824290000164,99.35824290000164,99.35824290000164,99.35824290000164,99.35824290000164,n,1,0.664787299996533,100.0543145000047,100.56470740000077,,,001,gabi,2022-12-31_01h40.20.488,MentalRot,2022.2.1,59.88525984077358,
0,90,y,m,90,0,8,8,5,,,,,,,,,,,100.56470740000077,100.56470740000077,100.56470740000077,100.56470740000077,100.56470740000077,m,1,0.6186649999945075,101.2042947000009,101.71654820000549,,,001,gabi,2022-12-31_01h40.20.488,MentalRot,2022.2.1,59.88525984077358,
0,45,n,n,45,0,9,9,2,,,,,,,,,,,101.71654820000549,101.71654820000549,101.71654820000549,101.71654820000549,101.71654820000549,n,1,0.5314571999988402,102.27113190000091,102.77722800000629,,,001,gabi,2022-12-31_01h40.20.488,MentalRot,2022.2.1,59.88525984077358,
0,0,y,m,0,0,10,10,1,,,,,,,,,,,102.77722800000629,102.77722800000629,102.77722800000629,102.77722800000629,102.77722800000629,m,1,0.47804869999527,103.28763030000118,103.79518440000538,,,001,gabi,2022-12-31_01h40.20.488,MentalRot,2022.2.1,59.88525984077358,
0,90,n,n,90,0,11,11,4,,,,,,,,,,,103.79518440000538,103.79518440000538,103.79518440000538,103.79518440000538,103.79518440000538,n,1,0.77221529999224,104.58753500000603,105.09447740000178,,,001,gabi,2022-12-31_01h40.20.488,MentalRot,2022.2.1,59.88525984077358,
0,45,y,m,45,0,12,12,3,,,,,,,,,,,105.09447740000178,105.09447740000178,105.09447740000178,105.09447740000178,105.09447740000178,m,1,0.5127901999949245,105.63776780000626,106.14581290000206,,,001,gabi,2022-12-31_01h40.20.488,MentalRot,2022.2.1,59.88525984077358,
0,270,y,m,270,0,13,13,13,,,,,,,,,,,106.14581290000206,106.14581290000206,106.14581290000206,106.14581290000206,106.14581290000206,m,1,0.6848426999931689,106.85429670000303,107.36189080000622,,,001,gabi,2022-12-31_01h40.20.488,MentalRot,2022.2.1,59.88525984077358,
0,135,y,m,135,0,14,14,7,,,,,,,,,,,107.36189080000622,107.36189080000622,107.36189080000622,107.36189080000622,107.36189080000622,m,1,0.574557999992976,107.95435750000615,108.46094630000152,,,001,gabi,2022-12-31_01h40.20.488,MentalRot,2022.2.1,59.88525984077358,
0,135,n,n,135,0,15,15,6,,,,,,,,,,,108.46094630000152,108.46094630000152,108.46094630000152,108.46094630000152,108.46094630000152,n,1,0.946108500000264,109.4374811000016,109.94469519999984,,,001,gabi,2022-12-31_01h40.20.488,MentalRot,2022.2.1,59.88525984077358,
0,225,n,n,225,1,0,16,10,,,,,,,,,,,109.94469519999984,109.94469519999984,109.94469519999984,109.94469519999984,109.94469519999984,n,1,0.8466790999955265,110.82072840000183,111.32850750000216,,,001,gabi,2022-12-31_01h40.20.488,MentalRot,2022.2.1,59.88525984077358,
0,180,y,m,180,1,1,17,9,,,,,,,,,,,111.32850750000216,111.32850750000216,111.32850750000216,111.32850750000216,111.32850750000216,m,1,0.5593019999942044,111.9039397000015,112.417228600003,,,001,gabi,2022-12-31_01h40.20.488,MentalRot,2022.2.1,59.88525984077358,
0,45,y,m,45,1,2,18,3,,,,,,,,,,,112.417228600003,112.417228600003,112.417228600003,112.417228600003,112.417228600003,m,1,0.4778387999976985,112.92052890000195,113.4334616000051,,,001,gabi,2022-12-31_01h40.20.488,MentalRot,2022.2.1,59.88525984077358,
0,135,n,n,135,1,3,19,6,,,,,,,,,,,113.4334616000051,113.4334616000051,113.4334616000051,113.4334616000051,113.4334616000051,n,1,0.5821126999944681,114.0372295000052,114.54205980000552,,,001,gabi,2022-12-31_01h40.20.488,MentalRot,2022.2.1,59.88525984077358,
0,0,n,n,0,1,4,20,0,,,,,,,,,,,114.54205980000552,114.54205980000552,114.54205980000552,114.54205980000552,114.54205980000552,n,1,0.5368143000014243,115.1040656000041,115.61342140000488,,,001,gabi,2022-12-31_01h40.20.488,MentalRot,2022.2.1,59.88525984077358,
0,315,y,m,315,1,5,21,15,,,,,,,,,,,115.61342140000488,115.61342140000488,115.61342140000488,115.61342140000488,115.61342140000488,n,0,0.5933059999952093,116.23715050000465,116.74249430000054,,,001,gabi,2022-12-31_01h40.20.488,MentalRot,2022.2.1,59.88525984077358,
0,180,n,n,180,1,6,22,8,,,,,,,,,,,116.74249430000054,116.74249430000054,116.74249430000054,116.74249430000054,116.74249430000054,n,1,0.8322292999946512,117.6035203000065,118.11147990000609,,,001,gabi,2022-12-31_01h40.20.488,MentalRot,2022.2.1,59.88525984077358,
0,90,n,n,90,1,7,23,4,,,,,,,,,,,118.11147990000609,118.11147990000609,118.11147990000609,118.11147990000609,118.11147990000609,n,1,0.6244870999944396,118.75353950000135,119.25984480000625,,,001,gabi,2022-12-31_01h40.20.488,MentalRot,2022.2.1,59.88525984077358,
0,270,y,m,270,1,8,24,13,,,,,,,,,,,119.25984480000625,119.25984480000625,119.25984480000625,119.25984480000625,119.25984480000625,m,1,0.788308799994411,120.07016719999956,120.57787050000479,,,001,gabi,2022-12-31_01h40.20.488,MentalRot,2022.2.1,59.88525984077358,
0,45,n,n,45,1,9,25,2,,,,,,,,,,,120.57787050000479,120.57787050000479,120.57787050000479,120.57787050000479,120.57787050000479,n,1,0.5656801999939489,121.17006000000401,121.67639240000426,,,001,gabi,2022-12-31_01h40.20.488,MentalRot,2022.2.1,59.88525984077358,
0,0,y,m,0,1,10,26,1,,,,,,,,,,,121.67639240000426,121.67639240000426,121.67639240000426,121.67639240000426,121.67639240000426,m,1,0.4920733999897493,122.18679140000313,122.68746920000558,,,001,gabi,2022-12-31_01h40.20.488,MentalRot,2022.2.1,59.88525984077358,
0,315,n,n,315,1,11,27,14,,,,,,,,,,,122.68746920000558,122.68746920000558,122.68746920000558,122.68746920000558,122.68746920000558,n,1,0.6806517999939388,123.38697260000481,123.89363550000417,,,001,gabi,2022-12-31_01h40.20.488,MentalRot,2022.2.1,59.88525984077358,
0,270,n,n,270,1,12,28,12,,,,,,,,,,,123.89363550000417,123.89363550000417,123.89363550000417,123.89363550000417,123.89363550000417,n,1,0.7700236999953631,124.68703110000206,125.19436320000386,,,001,gabi,2022-12-31_01h40.20.488,MentalRot,2022.2.1,59.88525984077358,
0,135,y,m,135,1,13,29,7,,,,,,,,,,,125.19436320000386,125.19436320000386,125.19436320000386,125.19436320000386,125.19436320000386,m,1,0.67679969999881,125.88661720000528,126.3933560000005,,,001,gabi,2022-12-31_01h40.20.488,MentalRot,2022.2.1,59.88525984077358,
0,225,y,m,225,1,14,30,11,,,,,,,,,,,126.3933560000005,126.3933560000005,126.3933560000005,126.3933560000005,126.3933560000005,m,1,0.6453430999899865,127.07051580000552,127.57886490000237,,,001,gabi,2022-12-31_01h40.20.488,MentalRot,2022.2.1,59.88525984077358,
0,90,y,m,90,1,15,31,5,,,,,,,,,,,127.57886490000237,127.57886490000237,127.57886490000237,127.57886490000237,127.57886490000237,m,1,0.6598162000009324,128.2699697000062,128.77785779999977,,,001,gabi,2022-12-31_01h40.20.488,MentalRot,2022.2.1,59.88525984077358,
0,135,n,n,135,2,0,32,6,,,,,,,,,,,128.77785779999977,128.77785779999977,128.77785779999977,128.77785779999977,128.77785779999977,n,1,0.758776199996646,129.55304950000573,130.05323870000575,,,001,gabi,2022-12-31_01h40.20.488,MentalRot,2022.2.1,59.88525984077358,
0,45,n,n,45,2,1,33,2,,,,,,,,,,,130.05323870000575,130.05323870000575,130.05323870000575,130.05323870000575,130.05323870000575,n,1,0.6341515999956755,130.70317530000466,131.20498410000437,,,001,gabi,2022-12-31_01h40.20.488,MentalRot,2022.2.1,59.88525984077358,
0,45,y,m,45,2,2,34,3,,,,,,,,,,,131.20498410000437,131.20498410000437,131.20498410000437,131.20498410000437,131.20498410000437,m,1,0.5145893999942928,131.7365609000044,132.23709919999965,,,001,gabi,2022-12-31_01h40.20.488,MentalRot,2022.2.1,59.88525984077358,
0,0,n,n,0,2,3,35,0,,,,,,,,,,,132.23709919999965,132.23709919999965,132.23709919999965,132.23709919999965,132.23709919999965,n,1,0.7060805999935837,132.96957600000314,133.47723899999983,,,001,gabi,2022-12-31_01h40.20.488,MentalRot,2022.2.1,59.88525984077358,
0,135,y,m,135,2,4,36,7,,,,,,,,,,,133.47723899999983,133.47723899999983,133.47723899999983,133.47723899999983,133.47723899999983,m,1,0.6816620999961742,134.18622110000433,134.6938733000061,,,001,gabi,2022-12-31_01h40.20.488,MentalRot,2022.2.1,59.88525984077358,
0,225,n,n,225,2,5,37,10,,,,,,,,,,,134.6938733000061,134.6938733000061,134.6938733000061,134.6938733000061,134.6938733000061,n,1,0.9047435999964364,135.61931300000288,136.1248734000037,,,001,gabi,2022-12-31_01h40.20.488,MentalRot,2022.2.1,59.88525984077358,
0,270,n,n,270,2,6,38,12,,,,,,,,,,,136.1248734000037,136.1248734000037,136.1248734000037,136.1248734000037,136.1248734000037,n,1,0.6905084999962128,136.83618200000637,137.34367130000464,,,001,gabi,2022-12-31_01h40.20.488,MentalRot,2022.2.1,59.88525984077358,
0,0,y,m,0,2,7,39,1,,,,,,,,,,,137.34367130000464,137.34367130000464,137.34367130000464,137.34367130000464,137.34367130000464,m,1,0.5519179999973858,137.91951010000048,138.42496860000392,,,001,gabi,2022-12-31_01h40.20.488,MentalRot,2022.2.1,59.88525984077358,
0,225,y,m,225,2,8,40,11,,,,,,,,,,,138.42496860000392,138.42496860000392,138.42496860000392,138.42496860000392,138.42496860000392,n,0,0.5819339999943622,139.03631420000602,139.54281760000595,,,001,gabi,2022-12-31_01h40.20.488,MentalRot,2022.2.1,59.88525984077358,
0,180,n,n,180,2,9,41,8,,,,,,,,,,,139.54281760000595,139.54281760000595,139.54281760000595,139.54281760000595,139.54281760000595,n,1,0.663772699997935,140.23615140000038,140.7444506000029,,,001,gabi,2022-12-31_01h40.20.488,MentalRot,2022.2.1,59.88525984077358,
0,90,y,m,90,2,10,42,5,,,,,,,,,,,140.7444506000029,140.7444506000029,140.7444506000029,140.7444506000029,140.7444506000029,m,1,0.6231176000001142,141.3858051999996,141.89726400000654,,,001,gabi,2022-12-31_01h40.20.488,MentalRot,2022.2.1,59.88525984077358,
0,180,y,m,180,2,11,43,9,,,,,,,,,,,141.89726400000654,141.89726400000654,141.89726400000654,141.89726400000654,141.89726400000654,m,1,0.5984586999984458,142.51946200000384,143.02525840000453,,,001,gabi,2022-12-31_01h40.20.488,MentalRot,2022.2.1,59.88525984077358,
0,315,y,m,315,2,12,44,15,,,,,,,,,,,143.02525840000453,143.02525840000453,143.02525840000453,143.02525840000453,143.02525840000453,m,1,0.5819931999940309,143.63617890000023,144.14444150000054,,,001,gabi,2022-12-31_01h40.20.488,MentalRot,2022.2.1,59.88525984077358,
0,90,n,n,90,2,13,45,4,,,,,,,,,,,144.14444150000054,144.14444150000054,144.14444150000054,144.14444150000054,144.14444150000054,n,1,0.5838241999954334,144.75252500000352,145.260211300003,,,001,gabi,2022-12-31_01h40.20.488,MentalRot,2022.2.1,59.88525984077358,
0,315,n,n,315,2,14,46,14,,,,,,,,,,,145.260211300003,145.260211300003,145.260211300003,145.260211300003,145.260211300003,n,1,0.5545852999930503,145.83551220000663,146.34191380000266,,,001,gabi,2022-12-31_01h40.20.488,MentalRot,2022.2.1,59.88525984077358,
0,270,y,m,270,2,15,47,13,,,,,,,,,,,146.34191380000266,146.34191380000266,146.34191380000266,146.34191380000266,146.34191380000266,m,1,0.577406799995515,146.93569610000122,147.4413566000003,,,001,gabi,2022-12-31_01h40.20.488,MentalRot,2022.2.1,59.88525984077358,
0,180,y,m,180,3,0,48,9,,,,,,,,,,,147.4413566000003,147.4413566000003,147.4413566000003,147.4413566000003,147.4413566000003,m,1,0.6295529999988503,148.10242880000442,148.60912150000513,,,001,gabi,2022-12-31_01h40.20.488,MentalRot,2022.2.1,59.88525984077358,
0,315,n,n,315,3,1,49,14,,,,,,,,,,,148.60912150000513,148.60912150000513,148.60912150000513,148.60912150000513,148.60912150000513,n,1,0.5986760999949183,149.2355674000064,149.74125940000522,,,001,gabi,2022-12-31_01h40.20.488,MentalRot,2022.2.1,59.88525984077358,
0,0,y,m,0,3,2,50,1,,,,,,,,,,,149.74125940000522,149.74125940000522,149.74125940000522,149.74125940000522,149.74125940000522,m,1,0.4588843999954406,150.21879230000195,150.72647720000532,,,001,gabi,2022-12-31_01h40.20.488,MentalRot,2022.2.1,59.88525984077358,
0,315,y,m,315,3,3,51,15,,,,,,,,,,,150.72647720000532,150.72647720000532,150.72647720000532,150.72647720000532,150.72647720000532,m,1,0.5693875999932061,151.31867000000057,151.82734030000574,,,001,gabi,2022-12-31_01h40.20.488,MentalRot,2022.2.1,59.88525984077358,
0,90,n,n,90,3,4,52,4,,,,,,,,,,,151.82734030000574,151.82734030000574,151.82734030000574,151.82734030000574,151.82734030000574,n,1,0.6041012999921804,152.45201620000444,152.95841430000291,,,001,gabi,2022-12-31_01h40.20.488,MentalRot,2022.2.1,59.88525984077358,
0,135,n,n,135,3,5,53,6,,,,,,,,,,,152.95841430000291,152.95841430000291,152.95841430000291,152.95841430000291,152.95841430000291,n,1,0.68110999999044,153.66891279999982,154.17990460000146,,,001,gabi,2022-12-31_01h40.20.488,MentalRot,2022.2.1,59.88525984077358,
0,270,y,m,270,3,6,54,13,,,,,,,,,,,154.17990460000146,154.17990460000146,154.17990460000146,154.17990460000146,154.17990460000146,m,1,0.4996054999937769,154.70176230000652,155.20945410000422,,,001,gabi,2022-12-31_01h40.20.488,MentalRot,2022.2.1,59.88525984077358,
0,45,n,n,45,3,7,55,2,,,,,,,,,,,155.20945410000422,155.20945410000422,155.20945410000422,155.20945410000422,155.20945410000422,n,1,0.574218199995812,155.80215650000173,156.31069180000486,,,001,gabi,2022-12-31_01h40.20.488,MentalRot,2022.2.1,59.88525984077358,
0,45,y,m,45,3,8,56,3,,,,,,,,,,,156.31069180000486,156.31069180000486,156.31069180000486,156.31069180000486,156.31069180000486,m,1,0.5044320999950287,156.83523560000322,157.34018250000372,,,001,gabi,2022-12-31_01h40.20.488,MentalRot,2022.2.1,59.88525984077358,
0,270,n,n,270,3,9,57,12,,,,,,,,,,,157.34018250000372,157.34018250000372,157.34018250000372,157.34018250000372,157.34018250000372,n,1,0.5871932999943965,157.95190770000045,158.45894350000162,,,001,gabi,2022-12-31_01h40.20.488,MentalRot,2022.2.1,59.88525984077358,
0,225,y,m,225,3,10,58,11,,,,,,,,,,,158.45894350000162,158.45894350000162,158.45894350000162,158.45894350000162,158.45894350000162,n,0,0.9485136000002967,159.435192500001,159.94243260000076,,,001,gabi,2022-12-31_01h40.20.488,MentalRot,2022.2.1,59.88525984077358,
0,180,n,n,180,3,11,59,8,,,,,,,,,,,159.94243260000076,159.94243260000076,159.94243260000076,159.94243260000076,159.94243260000076,n,1,0.6808941999988747,160.65180660000624,161.1593967000008,,,001,gabi,2022-12-31_01h40.20.488,MentalRot,2022.2.1,59.88525984077358,
0,135,y,m,135,3,12,60,7,,,,,,,,,,,161.1593967000008,161.1593967000008,161.1593967000008,161.1593967000008,161.1593967000008,m,1,0.6641968999974779,161.85126680000394,162.35619960000622,,,001,gabi,2022-12-31_01h40.20.488,MentalRot,2022.2.1,59.88525984077358,
0,225,n,n,225,3,13,61,10,,,,,,,,,,,162.35619960000622,162.35619960000622,162.35619960000622,162.35619960000622,162.35619960000622,n,1,0.7945697999966796,163.16823580000346,163.66959530000167,,,001,gabi,2022-12-31_01h40.20.488,MentalRot,2022.2.1,59.88525984077358,
0,90,y,m,90,3,14,62,5,,,,,,,,,,,163.66959530000167,163.66959530000167,163.66959530000167,163.66959530000167,163.66959530000167,m,1,0.49773179999465356,164.18456929999957,164.68546900000365,,,001,gabi,2022-12-31_01h40.20.488,MentalRot,2022.2.1,59.88525984077358,
0,0,n,n,0,3,15,63,0,,,,,,,,,,,164.68546900000365,164.68546900000365,164.68546900000365,164.68546900000365,164.68546900000365,n,1,0.6661177999922074,165.3685764000038,165.87704890000168,,,001,gabi,2022-12-31_01h40.20.488,MentalRot,2022.2.1,59.88525984077358,
0,180,y,m,180,4,0,64,9,,,,,,,,,,,165.87704890000168,165.87704890000168,165.87704890000168,165.87704890000168,165.87704890000168,m,1,0.7219198999955552,166.61830790000386,167.12565120000363,,,001,gabi,2022-12-31_01h40.20.488,MentalRot,2022.2.1,59.88525984077358,
0,180,n,n,180,4,1,65,8,,,,,,,,,,,167.12565120000363,167.12565120000363,167.12565120000363,167.12565120000363,167.12565120000363,n,1,0.8736198999977205,168.01816840000538,168.52657080000063,,,001,gabi,2022-12-31_01h40.20.488,MentalRot,2022.2.1,59.88525984077358,
0,45,n,n,45,4,2,66,2,,,,,,,,,,,168.52657080000063,168.52657080000063,168.52657080000063,168.52657080000063,168.52657080000063,n,1,0.5205966999928933,169.06817870000668,169.5746572000062,,,001,gabi,2022-12-31_01h40.20.488,MentalRot,2022.2.1,59.88525984077358,
0,0,y,m,0,4,3,67,1,,,,,,,,,,,169.5746572000062,169.5746572000062,169.5746572000062,169.5746572000062,169.5746572000062,m,1,0.7605010999977821,170.3512000000046,170.85886949999986,,,001,gabi,2022-12-31_01h40.20.488,MentalRot,2022.2.1,59.88525984077358,
0,0,n,n,0,4,4,68,0,,,,,,,,,,,170.85886949999986,170.85886949999986,170.85886949999986,170.85886949999986,170.85886949999986,n,1,0.5483894999924814,171.43444029999955,171.9414956000037,,,001,gabi,2022-12-31_01h40.20.488,MentalRot,2022.2.1,59.88525984077358,
0,90,n,n,90,4,5,69,4,,,,,,,,,,,171.9414956000037,171.9414956000037,171.9414956000037,171.9414956000037,171.9414956000037,n,1,0.5775622999935877,172.53455170000234,173.04230330000428,,,001,gabi,2022-12-31_01h40.20.488,MentalRot,2022.2.1,59.88525984077358,
0,270,n,n,270,4,6,70,12,,,,,,,,,,,173.04230330000428,173.04230330000428,173.04230330000428,173.04230330000428,173.04230330000428,n,1,0.7091295999925933,173.7678045000066,174.27609110000049,,,001,gabi,2022-12-31_01h40.20.488,MentalRot,2022.2.1,59.88525984077358,
0,315,y,m,315,4,7,71,15,,,,,,,,,,,174.27609110000049,174.27609110000049,174.27609110000049,174.27609110000049,174.27609110000049,m,1,0.49149429999670247,174.78441290000046,175.29637290000392,,,001,gabi,2022-12-31_01h40.20.488,MentalRot,2022.2.1,59.88525984077358,
0,90,y,m,90,4,8,72,5,,,,,,,,,,,175.29637290000392,175.29637290000392,175.29637290000392,175.29637290000392,175.29637290000392,m,1,0.6874800999939907,176.00125169999956,176.5084799000033,,,001,gabi,2022-12-31_01h40.20.488,MentalRot,2022.2.1,59.88525984077358,
0,225,n,n,225,4,9,73,10,,,,,,,,,,,176.5084799000033,176.5084799000033,176.5084799000033,176.5084799000033,176.5084799000033,n,1,0.6436930999916513,177.18425660000503,177.69687120000162,,,001,gabi,2022-12-31_01h40.20.488,MentalRot,2022.2.1,59.88525984077358,
0,135,y,m,135,4,10,74,7,,,,,,,,,,,177.69687120000162,177.69687120000162,177.69687120000162,177.69687120000162,177.69687120000162,m,1,0.6705480999953579,178.3842508000016,178.89334470000176,,,001,gabi,2022-12-31_01h40.20.488,MentalRot,2022.2.1,59.88525984077358,
0,315,n,n,315,4,11,75,14,,,,,,,,,,,178.89334470000176,178.89334470000176,178.89334470000176,178.89334470000176,178.89334470000176,n,1,0.5455746999941766,179.46759480000037,179.97503720000532,,,001,gabi,2022-12-31_01h40.20.488,MentalRot,2022.2.1,59.88525984077358,
0,45,y,m,45,4,12,76,3,,,,,,,,,,,179.97503720000532,179.97503720000532,179.97503720000532,179.97503720000532,179.97503720000532,m,1,0.44004839999252,180.43433540000115,180.94022210000549,,,001,gabi,2022-12-31_01h40.20.488,MentalRot,2022.2.1,59.88525984077358,
0,135,n,n,135,4,13,77,6,,,,,,,,,,,180.94022210000549,180.94022210000549,180.94022210000549,180.94022210000549,180.94022210000549,n,1,0.7876818999939132,181.75087740000163,182.25556860000506,,,001,gabi,2022-12-31_01h40.20.488,MentalRot,2022.2.1,59.88525984077358,
0,225,y,m,225,4,14,78,11,,,,,,,,,,,182.25556860000506,182.25556860000506,182.25556860000506,182.25556860000506,182.25556860000506,m,1,0.6725123999931384,182.95070470000064,183.45627960000274,,,001,gabi,2022-12-31_01h40.20.488,MentalRot,2022.2.1,59.88525984077358,
0,270,y,m,270,4,15,79,13,,,,,,,,,,,183.45627960000274,183.45627960000274,183.45627960000274,183.45627960000274,183.45627960000274,m,1,0.6791467999937595,184.16746160000184,184.674637300006,,,001,gabi,2022-12-31_01h40.20.488,MentalRot,2022.2.1,59.88525984077358,
0,90,n,n,90,5,0,80,4,,,,,,,,,,,184.674637300006,184.674637300006,184.674637300006,184.674637300006,184.674637300006,n,1,0.5563337999919895,185.2509038000062,185.75725700000476,,,001,gabi,2022-12-31_01h40.20.488,MentalRot,2022.2.1,59.88525984077358,
0,270,y,m,270,5,1,81,13,,,,,,,,,,,185.75725700000476,185.75725700000476,185.75725700000476,185.75725700000476,185.75725700000476,m,1,0.6182808999947156,186.40078820000053,186.90826670000388,,,001,gabi,2022-12-31_01h40.20.488,MentalRot,2022.2.1,59.88525984077358,
0,0,n,n,0,5,2,82,0,,,,,,,,,,,186.90826670000388,186.90826670000388,186.90826670000388,186.90826670000388,186.90826670000388,n,1,0.5632508999915444,187.50057740000193,188.00709360000474,,,001,gabi,2022-12-31_01h40.20.488,MentalRot,2022.2.1,59.88525984077358,
0,135,y,m,135,5,3,83,7,,,,,,,,,,,188.00709360000474,188.00709360000474,188.00709360000474,188.00709360000474,188.00709360000474,m,1,0.6076847999938764,188.63379020000139,189.1391752000054,,,001,gabi,2022-12-31_01h40.20.488,MentalRot,2022.2.1,59.88525984077358,
0,90,y,m,90,5,4,84,5,,,,,,,,,,,189.1391752000054,189.1391752000054,189.1391752000054,189.1391752000054,189.1391752000054,m,1,0.5159404999940307,189.68400459999975,190.19139670000004,,,001,gabi,2022-12-31_01h40.20.488,MentalRot,2022.2.1,59.88525984077358,
0,225,y,m,225,5,5,85,11,,,,,,,,,,,190.19139670000004,190.19139670000004,190.19139670000004,190.19139670000004,190.19139670000004,m,1,0.567667999996047,190.78357180000603,191.29205840000213,,,001,gabi,2022-12-31_01h40.20.488,MentalRot,2022.2.1,59.88525984077358,
0,225,n,n,225,5,6,86,10,,,,,,,,,,,191.29205840000213,191.29205840000213,191.29205840000213,191.29205840000213,191.29205840000213,n,1,0.7484182999905897,192.06714990000182,192.57801130000007,,,001,gabi,2022-12-31_01h40.20.488,MentalRot,2022.2.1,59.88525984077358,
0,45,n,n,45,5,7,87,2,,,,,,,,,,,192.57801130000007,192.57801130000007,192.57801130000007,192.57801130000007,192.57801130000007,n,1,0.6049778999949922,193.20061870000063,193.7074358000027,,,001,gabi,2022-12-31_01h40.20.488,MentalRot,2022.2.1,59.88525984077358,
0,45,y,m,45,5,8,88,3,,,,,,,,,,,193.7074358000027,193.7074358000027,193.7074358000027,193.7074358000027,193.7074358000027,m,1,0.5476827999882516,194.28340940000635,194.79292280000664,,,001,gabi,2022-12-31_01h40.20.488,MentalRot,2022.2.1,59.88525984077358,
0,180,y,m,180,5,9,89,9,,,,,,,,,,,194.79292280000664,194.79292280000664,194.79292280000664,194.79292280000664,194.79292280000664,m,1,0.6219502999956603,195.43320870000025,195.93431870000495,,,001,gabi,2022-12-31_01h40.20.488,MentalRot,2022.2.1,59.88525984077358,
0,270,n,n,270,5,10,90,12,,,,,,,,,,,195.93431870000495,195.93431870000495,195.93431870000495,195.93431870000495,195.93431870000495,n,1,0.6490567000000738,196.599641300003,197.10352650000277,,,001,gabi,2022-12-31_01h40.20.488,MentalRot,2022.2.1,59.88525984077358,
0,315,n,n,315,5,11,91,14,,,,,,,,,,,197.10352650000277,197.10352650000277,197.10352650000277,197.10352650000277,197.10352650000277,n,1,0.5437168999924324,197.66704830000526,198.1753852000038,,,001,gabi,2022-12-31_01h40.20.488,MentalRot,2022.2.1,59.88525984077358,
0,180,n,n,180,5,12,92,8,,,,,,,,,,,198.1753852000038,198.1753852000038,198.1753852000038,198.1753852000038,198.1753852000038,n,1,0.6633597999971244,198.86652380000305,199.374570400003,,,001,gabi,2022-12-31_01h40.20.488,MentalRot,2022.2.1,59.88525984077358,
0,315,y,m,315,5,13,93,15,,,,,,,,,,,199.374570400003,199.374570400003,199.374570400003,199.374570400003,199.374570400003,m,1,0.4642490999904112,199.86652520000644,200.37394840000343,,,001,gabi,2022-12-31_01h40.20.488,MentalRot,2022.2.1,59.88525984077358,
0,0,y,m,0,5,14,94,1,,,,,,,,,,,200.37394840000343,200.37394840000343,200.37394840000343,200.37394840000343,200.37394840000343,m,1,0.4331817999991472,200.83329680000315,201.34012800000346,,,001,gabi,2022-12-31_01h40.20.488,MentalRot,2022.2.1,59.88525984077358,
0,135,n,n,135,5,15,95,6,,,,,,,,,,,201.34012800000346,201.34012800000346,201.34012800000346,201.34012800000346,201.34012800000346,n,1,0.7548884999996517,202.11638479999965,202.6220750000066,,,001,gabi,2022-12-31_01h40.20.488,MentalRot,2022.2.1,59.88525984077358,
0,315,n,n,315,6,0,96,14,,,,,,,,,,,202.6220750000066,202.6220750000066,202.6220750000066,202.6220750000066,202.6220750000066,n,1,0.5769130999979097,203.2164808000016,203.72552590000123,,,001,gabi,2022-12-31_01h40.20.488,MentalRot,2022.2.1,59.88525984077358,
0,225,y,m,225,6,1,97,11,,,,,,,,,,,203.72552590000123,203.72552590000123,203.72552590000123,203.72552590000123,203.72552590000123,m,1,0.5617422999930568,204.31662979999965,204.824632200005,,,001,gabi,2022-12-31_01h40.20.488,MentalRot,2022.2.1,59.88525984077358,
0,225,n,n,225,6,2,98,10,,,,,,,,,,,204.824632200005,204.824632200005,204.824632200005,204.824632200005,204.824632200005,n,1,0.7190857999958098,205.56747160000668,206.0774534000011,,,001,gabi,2022-12-31_01h40.20.488,MentalRot,2022.2.1,59.88525984077358,
0,315,y,m,315,6,3,99,15,,,,,,,,,,,206.0774534000011,206.0774534000011,206.0774534000011,206.0774534000011,206.0774534000011,m,1,0.46514039999601664,206.5665480000025,207.07272090000333,,,001,gabi,2022-12-31_01h40.20.488,MentalRot,2022.2.1,59.88525984077358,
0,90,y,m,90,6,4,100,5,,,,,,,,,,,207.07272090000333,207.07272090000333,207.07272090000333,207.07272090000333,207.07272090000333,m,1,0.7274553999959608,207.8162242000035,208.32318280000618,,,001,gabi,2022-12-31_01h40.20.488,MentalRot,2022.2.1,59.88525984077358,
0,270,y,m,270,6,5,101,13,,,,,,,,,,,208.32318280000618,208.32318280000618,208.32318280000618,208.32318280000618,208.32318280000618,m,1,0.7399697999935597,209.08277730000555,209.58956300000136,,,001,gabi,2022-12-31_01h40.20.488,MentalRot,2022.2.1,59.88525984077358,
0,180,y,m,180,6,6,102,9,,,,,,,,,,,209.58956300000136,209.58956300000136,209.58956300000136,209.58956300000136,209.58956300000136,m,1,0.6818124999917927,210.29962020000676,210.809611100005,,,001,gabi,2022-12-31_01h40.20.488,MentalRot,2022.2.1,59.88525984077358,
0,45,y,m,45,6,7,103,3,,,,,,,,,,,210.809611100005,210.809611100005,210.809611100005,210.809611100005,210.809611100005,m,1,0.5096671999999671,211.34949790000246,211.85613000000012,,,001,gabi,2022-12-31_01h40.20.488,MentalRot,2022.2.1,59.88525984077358,
0,270,n,n,270,6,8,104,12,,,,,,,,,,,211.85613000000012,211.85613000000012,211.85613000000012,211.85613000000012,211.85613000000012,n,1,0.6390305999957491,212.51590620000206,213.02427530000568,,,001,gabi,2022-12-31_01h40.20.488,MentalRot,2022.2.1,59.88525984077358,
0,180,n,n,180,6,9,105,8,,,,,,,,,,,213.02427530000568,213.02427530000568,213.02427530000568,213.02427530000568,213.02427530000568,n,1,0.6948454999946989,213.7497430000003,214.25567140000203,,,001,gabi,2022-12-31_01h40.20.488,MentalRot,2022.2.1,59.88525984077358,
0,0,y,m,0,6,10,106,1,,,,,,,,,,,214.25567140000203,214.25567140000203,214.25567140000203,214.25567140000203,214.25567140000203,m,1,0.43973389999882784,214.71597780000593,215.22335380000004,,,001,gabi,2022-12-31_01h40.20.488,MentalRot,2022.2.1,59.88525984077358,
0,135,y,m,135,6,11,107,7,,,,,,,,,,,215.22335380000004,215.22335380000004,215.22335380000004,215.22335380000004,215.22335380000004,m,1,0.5525894999955199,215.79897000000346,216.30673610000667,,,001,gabi,2022-12-31_01h40.20.488,MentalRot,2022.2.1,59.88525984077358,
0,0,n,n,0,6,12,108,0,,,,,,,,,,,216.30673610000667,216.30673610000667,216.30673610000667,216.30673610000667,216.30673610000667,n,1,0.5086211000016192,216.83258330000535,217.34230709999974,,,001,gabi,2022-12-31_01h40.20.488,MentalRot,2022.2.1,59.88525984077358,
0,90,n,n,90,6,13,109,4,,,,,,,,,,,217.34230709999974,217.34230709999974,217.34230709999974,217.34230709999974,217.34230709999974,n,1,0.6168225999936112,217.98251580000215,218.4902130000046,,,001,gabi,2022-12-31_01h40.20.488,MentalRot,2022.2.1,59.88525984077358,
0,45,n,n,45,6,14,110,2,,,,,,,,,,,218.4902130000046,218.4902130000046,218.4902130000046,218.4902130000046,218.4902130000046,n,1,0.5166877999945427,219.03263230000448,219.54082490000292,,,001,gabi,2022-12-31_01h40.20.488,MentalRot,2022.2.1,59.88525984077358,
0,135,n,n,135,6,15,111,6,,,,,,,,,,,219.54082490000292,219.54082490000292,219.54082490000292,219.54082490000292,219.54082490000292,n,1,0.6101717999990797,220.18246410000575,220.690302300005,,,001,gabi,2022-12-31_01h40.20.488,MentalRot,2022.2.1,59.88525984077358,
0,0,y,m,0,7,0,112,1,,,,,,,,,,,220.690302300005,220.690302300005,220.690302300005,220.690302300005,220.690302300005,m,1,0.5089128999898094,221.2155203000002,221.7235742000048,,,001,gabi,2022-12-31_01h40.20.488,MentalRot,2022.2.1,59.88525984077358,
0,180,n,n,180,7,1,113,8,,,,,,,,,,,221.7235742000048,221.7235742000048,221.7235742000048,221.7235742000048,221.7235742000048,n,1,0.6525358999933815,222.39879090000613,222.90598860000318,,,001,gabi,2022-12-31_01h40.20.488,MentalRot,2022.2.1,59.88525984077358,
0,135,y,m,135,7,2,114,7,,,,,,,,,,,222.90598860000318,222.90598860000318,222.90598860000318,222.90598860000318,222.90598860000318,m,1,0.5420312999922317,223.46539640000265,223.9722252000065,,,001,gabi,2022-12-31_01h40.20.488,MentalRot,2022.2.1,59.88525984077358,
0,45,n,n,45,7,3,115,2,,,,,,,,,,,223.9722252000065,223.9722252000065,223.9722252000065,223.9722252000065,223.9722252000065,n,1,0.6106616999895778,224.59891930000595,225.1065249000021,,,001,gabi,2022-12-31_01h40.20.488,MentalRot,2022.2.1,59.88525984077358,
0,90,n,n,90,7,4,116,4,,,,,,,,,,,225.1065249000021,225.1065249000021,225.1065249000021,225.1065249000021,225.1065249000021,n,1,0.5889039999965462,225.71538660000078,226.21873040000355,,,001,gabi,2022-12-31_01h40.20.488,MentalRot,2022.2.1,59.88525984077358,
0,90,y,m,90,7,5,117,5,,,,,,,,,,,226.21873040000355,226.21873040000355,226.21873040000355,226.21873040000355,226.21873040000355,m,1,0.5159273999888683,226.76529740000115,227.2660068000041,,,001,gabi,2022-12-31_01h40.20.488,MentalRot,2022.2.1,59.88525984077358,
0,225,n,n,225,7,6,118,10,,,,,,,,,,,227.2660068000041,227.2660068000041,227.2660068000041,227.2660068000041,227.2660068000041,n,1,0.8446668999968097,228.13224930000433,228.63415860000532,,,001,gabi,2022-12-31_01h40.20.488,MentalRot,2022.2.1,59.88525984077358,
0,270,n,n,270,7,7,119,12,,,,,,,,,,,228.63415860000532,228.63415860000532,228.63415860000532,228.63415860000532,228.63415860000532,n,1,0.6940680999978213,229.34880890000204,229.85910380000132,,,001,gabi,2022-12-31_01h40.20.488,MentalRot,2022.2.1,59.88525984077358,
0,315,n,n,315,7,8,120,14,,,,,,,,,,,229.85910380000132,229.85910380000132,229.85910380000132,229.85910380000132,229.85910380000132,n,1,0.5086493999988306,230.39845150000474,230.90616910000244,,,001,gabi,2022-12-31_01h40.20.488,MentalRot,2022.2.1,59.88525984077358,
0,180,y,m,180,7,9,121,9,,,,,,,,,,,230.90616910000244,230.90616910000244,230.90616910000244,230.90616910000244,230.90616910000244,m,1,0.644830399993225,231.58209000000352,232.09026799999992,,,001,gabi,2022-12-31_01h40.20.488,MentalRot,2022.2.1,59.88525984077358,
0,45,y,m,45,7,10,122,3,,,,,,,,,,,232.09026799999992,232.09026799999992,232.09026799999992,232.09026799999992,232.09026799999992,m,1,0.6203538999907323,232.73203670000657,233.2393022000033,,,001,gabi,2022-12-31_01h40.20.488,MentalRot,2022.2.1,59.88525984077358,
0,270,y,m,270,7,11,123,13,,,,,,,,,,,233.2393022000033,233.2393022000033,233.2393022000033,233.2393022000033,233.2393022000033,m,1,0.6958105999947293,233.9650896000021,234.4729912000039,,,001,gabi,2022-12-31_01h40.20.488,MentalRot,2022.2.1,59.88525984077358,
0,225,y,m,225,7,12,124,11,,,,,,,,,,,234.4729912000039,234.4729912000039,234.4729912000039,234.4729912000039,234.4729912000039,m,1,0.6621971999993548,235.16471250000177,235.67562650000036,,,001,gabi,2022-12-31_01h40.20.488,MentalRot,2022.2.1,59.88525984077358,
0,135,n,n,135,7,13,125,6,,,,,,,,,,,235.67562650000036,235.67562650000036,235.67562650000036,235.67562650000036,235.67562650000036,n,1,0.6592380000001867,236.36492310000176,236.87208630000532,,,001,gabi,2022-12-31_01h40.20.488,MentalRot,2022.2.1,59.88525984077358,
0,0,n,n,0,7,14,126,0,,,,,,,,,,,236.87208630000532,236.87208630000532,236.87208630000532,236.87208630000532,236.87208630000532,n,1,0.5195743999938713,237.415201900003,237.92339010000433,,,001,gabi,2022-12-31_01h40.20.488,MentalRot,2022.2.1,59.88525984077358,
0,315,y,m,315,7,15,127,15,,,,,,,,,,,237.92339010000433,237.92339010000433,237.92339010000433,237.92339010000433,237.92339010000433,m,1,0.49940919999062316,238.4483412000045,238.9551208000048,,,001,gabi,2022-12-31_01h40.20.488,MentalRot,2022.2.1,59.88525984077358,
0,45,n,n,45,8,0,128,2,,,,,,,,,,,238.9551208000048,238.9551208000048,238.9551208000048,238.9551208000048,238.9551208000048,n,1,0.6367715999949723,239.61520180000662,240.12292710000474,,,001,gabi,2022-12-31_01h40.20.488,MentalRot,2022.2.1,59.88525984077358,
0,0,n,n,0,8,1,129,0,,,,,,,,,,,240.12292710000474,240.12292710000474,240.12292710000474,240.12292710000474,240.12292710000474,n,1,0.5087075999981607,240.64842910000152,241.1547059000004,,,001,gabi,2022-12-31_01h40.20.488,MentalRot,2022.2.1,59.88525984077358,
0,315,y,m,315,8,2,130,15,,,,,,,,,,,241.1547059000004,241.1547059000004,241.1547059000004,241.1547059000004,241.1547059000004,m,1,0.5245333999919239,241.69789940000192,242.20603169999958,,,001,gabi,2022-12-31_01h40.20.488,MentalRot,2022.2.1,59.88525984077358,
0,180,n,n,180,8,3,131,8,,,,,,,,,,,242.20603169999958,242.20603169999958,242.20603169999958,242.20603169999958,242.20603169999958,n,1,0.8493404999971972,243.0813777000003,243.58976050000638,,,001,gabi,2022-12-31_01h40.20.488,MentalRot,2022.2.1,59.88525984077358,
0,135,y,m,135,8,4,132,7,,,,,,,,,,,243.58976050000638,243.58976050000638,243.58976050000638,243.58976050000638,243.58976050000638,m,1,0.7611183999979403,244.38115550000657,244.88753890000226,,,001,gabi,2022-12-31_01h40.20.488,MentalRot,2022.2.1,59.88525984077358,
0,270,y,m,270,8,5,133,13,,,,,,,,,,,244.88753890000226,244.88753890000226,244.88753890000226,244.88753890000226,244.88753890000226,n,0,0.5831367999926442,245.49771450000117,246.00616340000124,,,001,gabi,2022-12-31_01h40.20.488,MentalRot,2022.2.1,59.88525984077358,
0,225,n,n,225,8,6,134,10,,,,,,,,,,,246.00616340000124,246.00616340000124,246.00616340000124,246.00616340000124,246.00616340000124,n,1,0.745297199995548,246.78129250000347,247.2876286000028,,,001,gabi,2022-12-31_01h40.20.488,MentalRot,2022.2.1,59.88525984077358,
0,45,y,m,45,8,7,135,3,,,,,,,,,,,247.2876286000028,247.2876286000028,247.2876286000028,247.2876286000028,247.2876286000028,m,1,0.5600230999989435,247.86427950000507,248.37172220000502,,,001,gabi,2022-12-31_01h40.20.488,MentalRot,2022.2.1,59.88525984077358,
0,270,n,n,270,8,8,136,12,,,,,,,,,,,248.37172220000502,248.37172220000502,248.37172220000502,248.37172220000502,248.37172220000502,n,1,0.6353903999988688,249.03087630000664,249.537144300004,,,001,gabi,2022-12-31_01h40.20.488,MentalRot,2022.2.1,59.88525984077358,
0,135,n,n,135,8,9,137,6,,,,,,,,,,,249.537144300004,249.537144300004,249.537144300004,249.537144300004,249.537144300004,n,1,0.6552742999992915,250.21450400000322,250.7223809000061,,,001,gabi,2022-12-31_01h40.20.488,MentalRot,2022.2.1,59.88525984077358,
0,180,y,m,180,8,10,138,9,,,,,,,,,,,250.7223809000061,250.7223809000061,250.7223809000061,250.7223809000061,250.7223809000061,m,1,0.5724439999976312,251.31404889999976,251.82243500000186,,,001,gabi,2022-12-31_01h40.20.488,MentalRot,2022.2.1,59.88525984077358,
0,90,n,n,90,8,11,139,4,,,,,,,,,,,251.82243500000186,251.82243500000186,251.82243500000186,251.82243500000186,251.82243500000186,n,1,0.6965935999978683,252.5477261000051,253.05489330000273,,,001,gabi,2022-12-31_01h40.20.488,MentalRot,2022.2.1,59.88525984077358,
0,90,y,m,90,8,12,140,5,,,,,,,,,,,253.05489330000273,253.05489330000273,253.05489330000273,253.05489330000273,253.05489330000273,m,1,0.6883401999948546,253.76408680000168,254.2720477000039,,,001,gabi,2022-12-31_01h40.20.488,MentalRot,2022.2.1,59.88525984077358,
0,225,y,m,225,8,13,141,11,,,,,,,,,,,254.2720477000039,254.2720477000039,254.2720477000039,254.2720477000039,254.2720477000039,m,1,0.5437943999932031,254.84729750000406,255.35120800000004,,,001,gabi,2022-12-31_01h40.20.488,MentalRot,2022.2.1,59.88525984077358,
0,315,n,n,315,8,14,142,14,,,,,,,,,,,255.35120800000004,255.35120800000004,255.35120800000004,255.35120800000004,255.35120800000004,n,1,0.5769568999894545,255.94741120000253,256.45417520000046,,,001,gabi,2022-12-31_01h40.20.488,MentalRot,2022.2.1,59.88525984077358,
0,0,y,m,0,8,15,143,1,,,,,,,,,,,256.45417520000046,256.45417520000046,256.45417520000046,256.45417520000046,256.45417520000046,m,1,0.5685930999898119,257.0471013999995,257.54728190000606,,,001,gabi,2022-12-31_01h40.20.488,MentalRot,2022.2.1,59.88525984077358,
0,270,n,n,270,9,0,144,12,,,,,,,,,,,257.54728190000606,257.54728190000606,257.54728190000606,257.54728190000606,257.54728190000606,n,1,0.6113628999955836,258.18067440000596,258.68549230000644,,,001,gabi,2022-12-31_01h40.20.488,MentalRot,2022.2.1,59.88525984077358,
0,180,n,n,180,9,1,145,8,,,,,,,,,,,258.68549230000644,258.68549230000644,258.68549230000644,258.68549230000644,258.68549230000644,n,1,0.6097053999983473,259.31406170000264,259.82555890000367,,,001,gabi,2022-12-31_01h40.20.488,MentalRot,2022.2.1,59.88525984077358,
0,315,y,m,315,9,2,146,15,,,,,,,,,,,259.82555890000367,259.82555890000367,259.82555890000367,259.82555890000367,259.82555890000367,m,1,0.6136177999942447,260.4637029000005,260.9714380000005,,,001,gabi,2022-12-31_01h40.20.488,MentalRot,2022.2.1,59.88525984077358,
0,180,y,m,180,9,3,147,9,,,,,,,,,,,260.9714380000005,260.9714380000005,260.9714380000005,260.9714380000005,260.9714380000005,m,1,0.6367251999981818,261.63067050000245,262.13720110000577,,,001,gabi,2022-12-31_01h40.20.488,MentalRot,2022.2.1,59.88525984077358,
0,45,y,m,45,9,4,148,3,,,,,,,,,,,262.13720110000577,262.13720110000577,262.13720110000577,262.13720110000577,262.13720110000577,m,1,0.5507886999912444,262.7135120000021,263.22178360000544,,,001,gabi,2022-12-31_01h40.20.488,MentalRot,2022.2.1,59.88525984077358,
0,90,y,m,90,9,5,149,5,,,,,,,,,,,263.22178360000544,263.22178360000544,263.22178360000544,263.22178360000544,263.22178360000544,m,1,0.5862055999969016,263.8312337000025,264.33808910000516,,,001,gabi,2022-12-31_01h40.20.488,MentalRot,2022.2.1,59.88525984077358,
0,45,n,n,45,9,6,150,2,,,,,,,,,,,264.33808910000516,264.33808910000516,264.33808910000516,264.33808910000516,264.33808910000516,n,1,0.5178730999905383,264.8801864000052,265.3854505000054,,,001,gabi,2022-12-31_01h40.20.488,MentalRot,2022.2.1,59.88525984077358,
0,135,y,m,135,9,7,151,7,,,,,,,,,,,265.3854505000054,265.3854505000054,265.3854505000054,265.3854505000054,265.3854505000054,m,1,0.6374997999955667,266.047020900005,266.553707900006,,,001,gabi,2022-12-31_01h40.20.488,MentalRot,2022.2.1,59.88525984077358,
0,0,y,m,0,9,8,152,1,,,,,,,,,,,266.553707900006,266.553707900006,266.553707900006,266.553707900006,266.553707900006,m,1,0.6049635999879683,267.18013720000454,267.68744570000126,,,001,gabi,2022-12-31_01h40.20.488,MentalRot,2022.2.1,59.88525984077358,
0,0,n,n,0,9,9,153,0,,,,,,,,,,,267.68744570000126,267.68744570000126,267.68744570000126,267.68744570000126,267.68744570000126,n,1,0.6640013999931398,268.37990770000033,268.8920582999999,,,001,gabi,2022-12-31_01h40.20.488,MentalRot,2022.2.1,59.88525984077358,
0,270,y,m,270,9,10,154,13,,,,,,,,,,,268.8920582999999,268.8920582999999,268.8920582999999,268.8920582999999,268.8920582999999,m,1,0.5552829000007478,269.46345800000563,269.97096109999984,,,001,gabi,2022-12-31_01h40.20.488,MentalRot,2022.2.1,59.88525984077358,
0,225,y,m,225,9,11,155,11,,,,,,,,,,,269.97096109999984,269.97096109999984,269.97096109999984,269.97096109999984,269.97096109999984,m,1,0.5721169999960694,270.56309870000405,271.07062340000266,,,001,gabi,2022-12-31_01h40.20.488,MentalRot,2022.2.1,59.88525984077358,
0,225,n,n,225,9,12,156,10,,,,,,,,,,,271.07062340000266,271.07062340000266,271.07062340000266,271.07062340000266,271.07062340000266,n,1,0.9371017999947071,272.02992670000094,272.5370600000024,,,001,gabi,2022-12-31_01h40.20.488,MentalRot,2022.2.1,59.88525984077358,
0,135,n,n,135,9,13,157,6,,,,,,,,,,,272.5370600000024,272.5370600000024,272.5370600000024,272.5370600000024,272.5370600000024,n,1,0.7421143999963533,273.2967523000043,273.8028922000012,,,001,gabi,2022-12-31_01h40.20.488,MentalRot,2022.2.1,59.88525984077358,
0,90,n,n,90,9,14,158,4,,,,,,,,,,,273.8028922000012,273.8028922000012,273.8028922000012,273.8028922000012,273.8028922000012,n,1,0.6048175999967498,274.43012830000225,274.93669230000523,,,001,gabi,2022-12-31_01h40.20.488,MentalRot,2022.2.1,59.88525984077358,
0,315,n,n,315,9,15,159,14,,,,,,,,,,,274.93669230000523,274.93669230000523,274.93669230000523,274.93669230000523,274.93669230000523,n,1,0.5424041999940528,275.49630640000396,275.9961891000057,,,001,gabi,2022-12-31_01h40.20.488,MentalRot,2022.2.1,59.88525984077358,
,,,,,,,,,,,,,,,,,,,,,,,,,,,,,275.9961891000057,275.9961891000057,,,,,,,
