leftori,rightori,same,corrAns,angle,trials.thisRepN,trials.thisTrialN,trials.thisN,trials.thisIndex,instr_txt_1.started,instr_key_1.started,instr_key_1.keys,instr_key_1.rt,image_L_3.started,image_R_3.started,instr_txt_2.started,instr_key_2.started,mini_pause_2.started,mini_pause_2.stopped,image_L.started,image_R.started,response.started,main_instr.started,trial_count.started,response.keys,response.corr,response.rt,mini_pause.started,mini_pause.stopped,end_txt.started,end_key.started,session,participant,date,expName,psychopyVersion,frameRate,
,,,,,,,,,17.5752324999994,17.5752324999994,m,0.8367494999984046,,,,,,,,,,,,,,,,,,,001,iago,2022-12-31_01h49.39.183,MentalRot,2022.2.1,59.82986778973487,
0,225,y,m,225,0,0,0,11,,,,,18.518917399997008,18.518917399997008,18.518917399997008,18.518917399997008,19.292274799998268,20.834615399995528,20.834615399995528,20.834615399995528,20.834615399995528,20.834615399995528,20.834615399995528,m,1,0.9129855999999563,21.775232899999537,22.2800758999947,,,001,iago,2022-12-31_01h49.39.183,MentalRot,2022.2.1,59.82986778973487,
0,45,y,m,45,0,1,1,3,,,,,,,,,,,22.2800758999947,22.2800758999947,22.2800758999947,22.2800758999947,22.2800758999947,m,1,0.7718298000036157,23.075248999994074,23.580212799999572,,,001,iago,2022-12-31_01h49.39.183,MentalRot,2022.2.1,59.82986778973487,
0,45,n,n,45,0,2,2,2,,,,,,,,,,,23.580212799999572,23.580212799999572,23.580212799999572,23.580212799999572,23.580212799999572,n,1,0.5848055999958888,24.191651399996772,24.692717099998845,,,001,iago,2022-12-31_01h49.39.183,MentalRot,2022.2.1,59.82986778973487,
0,270,n,n,270,0,3,3,12,,,,,,,,,,,24.692717099998845,24.692717099998845,24.692717099998845,24.692717099998845,24.692717099998845,n,1,0.6633683999971254,25.37532829999691,25.882141299996874,,,001,iago,2022-12-31_01h49.39.183,MentalRot,2022.2.1,59.82986778973487,
0,90,y,m,90,0,4,4,5,,,,,,,,,,,25.882141299996874,25.882141299996874,25.882141299996874,25.882141299996874,25.882141299996874,m,1,0.6261826999980258,26.52499209999951,27.03105709999363,,,001,iago,2022-12-31_01h49.39.183,MentalRot,2022.2.1,59.82986778973487,
0,90,n,n,90,0,5,5,4,,,,,,,,,,,27.03105709999363,27.03105709999363,27.03105709999363,27.03105709999363,27.03105709999363,n,1,0.6844397000022582,27.741771899993182,28.24909099999786,,,001,iago,2022-12-31_01h49.39.183,MentalRot,2022.2.1,59.82986778973487,
0,0,y,m,0,0,6,6,1,,,,,,,,,,,28.24909099999786,28.24909099999786,28.24909099999786,28.24909099999786,28.24909099999786,m,1,0.5225655999965966,28.79185719999805,29.299778199994762,,,001,iago,2022-12-31_01h49.39.183,MentalRot,2022.2.1,59.82986778973487,
0,270,y,m,270,0,7,7,13,,,,,,,,,,,29.299778199994762,29.299778199994762,29.299778199994762,29.299778199994762,29.299778199994762,m,1,0.552746000001207,29.875063099992985,30.383015699997486,,,001,iago,2022-12-31_01h49.39.183,MentalRot,2022.2.1,59.82986778973487,
0,135,n,n,135,0,8,8,6,,,,,,,,,,,30.383015699997486,30.383015699997486,30.383015699997486,30.383015699997486,30.383015699997486,n,1,0.700881800003117,31.108106699997734,31.6086765,,,001,iago,2022-12-31_01h49.39.183,MentalRot,2022.2.1,59.82986778973487,
0,315,y,m,315,0,9,9,15,,,,,,,,,,,31.6086765,31.6086765,31.6086765,31.6086765,31.6086765,m,1,0.46751840000069933,32.10814140000002,32.61386379999749,,,001,iago,2022-12-31_01h49.39.183,MentalRot,2022.2.1,59.82986778973487,
0,315,n,n,315,0,10,10,14,,,,,,,,,,,32.61386379999749,32.61386379999749,32.61386379999749,32.61386379999749,32.61386379999749,n,1,0.6072596999947564,33.241703899999266,33.74882179999986,,,001,iago,2022-12-31_01h49.39.183,MentalRot,2022.2.1,59.82986778973487,
0,180,n,n,180,0,11,11,8,,,,,,,,,,,33.74882179999986,33.74882179999986,33.74882179999986,33.74882179999986,33.74882179999986,n,1,0.7116392999960226,34.491330999997444,34.99791549999645,,,001,iago,2022-12-31_01h49.39.183,MentalRot,2022.2.1,59.82986778973487,
0,0,n,n,0,0,12,12,0,,,,,,,,,,,34.99791549999645,34.99791549999645,34.99791549999645,34.99791549999645,34.99791549999645,n,1,0.5822945999971125,35.608071999995445,36.11436149999645,,,001,iago,2022-12-31_01h49.39.183,MentalRot,2022.2.1,59.82986778973487,
0,225,n,n,225,0,13,13,10,,,,,,,,,,,36.11436149999645,36.11436149999645,36.11436149999645,36.11436149999645,36.11436149999645,n,1,0.6578174000023864,36.791650899998785,37.29755679999653,,,001,iago,2022-12-31_01h49.39.183,MentalRot,2022.2.1,59.82986778973487,
0,135,y,m,135,0,14,14,7,,,,,,,,,,,37.29755679999653,37.29755679999653,37.29755679999653,37.29755679999653,37.29755679999653,m,1,0.5791052999993553,37.90817859999515,38.41513579999446,,,001,iago,2022-12-31_01h49.39.183,MentalRot,2022.2.1,59.82986778973487,
0,180,y,m,180,0,15,15,9,,,,,,,,,,,38.41513579999446,38.41513579999446,38.41513579999446,38.41513579999446,38.41513579999446,m,1,0.6842891999986023,39.12456949999614,39.63033589999395,,,001,iago,2022-12-31_01h49.39.183,MentalRot,2022.2.1,59.82986778973487,
0,90,y,m,90,1,0,16,5,,,,,,,,,,,39.63033589999395,39.63033589999395,39.63033589999395,39.63033589999395,39.63033589999395,m,1,0.5571921999944607,40.207883799994306,40.71352979999938,,,001,iago,2022-12-31_01h49.39.183,MentalRot,2022.2.1,59.82986778973487,
0,270,y,m,270,1,1,17,13,,,,,,,,,,,40.71352979999938,40.71352979999938,40.71352979999938,40.71352979999938,40.71352979999938,m,1,0.7227763999981107,41.45765909999318,41.96420089999447,,,001,iago,2022-12-31_01h49.39.183,MentalRot,2022.2.1,59.82986778973487,
0,180,n,n,180,1,2,18,8,,,,,,,,,,,41.96420089999447,41.96420089999447,41.96420089999447,41.96420089999447,41.96420089999447,n,1,0.6794127999964985,42.674414199995226,43.18139759999758,,,001,iago,2022-12-31_01h49.39.183,MentalRot,2022.2.1,59.82986778973487,
0,45,y,m,45,1,3,19,3,,,,,,,,,,,43.18139759999758,43.18139759999758,43.18139759999758,43.18139759999758,43.18139759999758,m,1,0.4941684000004898,43.70792789999541,44.21443569999974,,,001,iago,2022-12-31_01h49.39.183,MentalRot,2022.2.1,59.82986778973487,
0,270,n,n,270,1,4,20,12,,,,,,,,,,,44.21443569999974,44.21443569999974,44.21443569999974,44.21443569999974,44.21443569999974,n,1,0.677303700002085,44.907476299995324,45.414449799995054,,,001,iago,2022-12-31_01h49.39.183,MentalRot,2022.2.1,59.82986778973487,
0,90,n,n,90,1,5,21,4,,,,,,,,,,,45.414449799995054,45.414449799995054,45.414449799995054,45.414449799995054,45.414449799995054,n,1,0.5891157999940333,46.024382999996305,46.53066919999401,,,001,iago,2022-12-31_01h49.39.183,MentalRot,2022.2.1,59.82986778973487,
0,180,y,m,180,1,6,22,9,,,,,,,,,,,46.53066919999401,46.53066919999401,46.53066919999401,46.53066919999401,46.53066919999401,m,1,0.6573816000018269,47.20741349999298,47.715407899995625,,,001,iago,2022-12-31_01h49.39.183,MentalRot,2022.2.1,59.82986778973487,
0,225,y,m,225,1,7,23,11,,,,,,,,,,,47.715407899995625,47.715407899995625,47.715407899995625,47.715407899995625,47.715407899995625,n,0,0.7050812999950722,48.441095999995014,48.94652589999896,,,001,iago,2022-12-31_01h49.39.183,MentalRot,2022.2.1,59.82986778973487,
0,0,y,m,0,1,8,24,1,,,,,,,,,,,48.94652589999896,48.94652589999896,48.94652589999896,48.94652589999896,48.94652589999896,m,1,0.6413548999989871,49.60713559999567,50.109312099993986,,,001,iago,2022-12-31_01h49.39.183,MentalRot,2022.2.1,59.82986778973487,
0,135,n,n,135,1,9,25,6,,,,,,,,,,,50.109312099993986,50.109312099993986,50.109312099993986,50.109312099993986,50.109312099993986,n,1,1.1119134000036865,51.240883999998914,51.7478787,,,001,iago,2022-12-31_01h49.39.183,MentalRot,2022.2.1,59.82986778973487,
0,45,n,n,45,1,10,26,2,,,,,,,,,,,51.7478787,51.7478787,51.7478787,51.7478787,51.7478787,m,0,0.5365807999987737,52.30720869999641,52.81214579999505,,,001,iago,2022-12-31_01h49.39.183,MentalRot,2022.2.1,59.82986778973487,
0,315,y,m,315,1,11,27,15,,,,,,,,,,,52.81214579999505,52.81214579999505,52.81214579999505,52.81214579999505,52.81214579999505,m,1,0.5194597000008798,53.35720079999737,53.86290679999365,,,001,iago,2022-12-31_01h49.39.183,MentalRot,2022.2.1,59.82986778973487,
0,135,y,m,135,1,12,28,7,,,,,,,,,,,53.86290679999365,53.86290679999365,53.86290679999365,53.86290679999365,53.86290679999365,m,1,0.7092416000014055,54.5905466999975,55.09398169999622,,,001,iago,2022-12-31_01h49.39.183,MentalRot,2022.2.1,59.82986778973487,
0,0,n,n,0,1,13,29,0,,,,,,,,,,,55.09398169999622,55.09398169999622,55.09398169999622,55.09398169999622,55.09398169999622,n,1,0.6296583000003011,55.74046129999624,56.25004019999324,,,001,iago,2022-12-31_01h49.39.183,MentalRot,2022.2.1,59.82986778973487,
0,225,n,n,225,1,14,30,10,,,,,,,,,,,56.25004019999324,56.25004019999324,56.25004019999324,56.25004019999324,56.25004019999324,n,1,0.7137484999984736,56.99043659999734,57.49826409999514,,,001,iago,2022-12-31_01h49.39.183,MentalRot,2022.2.1,59.82986778973487,
0,315,n,n,315,1,15,31,14,,,,,,,,,,,57.49826409999514,57.49826409999514,57.49826409999514,57.49826409999514,57.49826409999514,n,1,0.5774947999962023,58.107231399997545,58.61460829999851,,,001,iago,2022-12-31_01h49.39.183,MentalRot,2022.2.1,59.82986778973487,
0,180,n,n,180,2,0,32,8,,,,,,,,,,,58.61460829999851,58.61460829999851,58.61460829999851,58.61460829999851,58.61460829999851,n,1,0.7649881000033929,59.40715399999317,59.912902599993686,,,001,iago,2022-12-31_01h49.39.183,MentalRot,2022.2.1,59.82986778973487,
0,270,y,m,270,2,1,33,13,,,,,,,,,,,59.912902599993686,59.912902599993686,59.912902599993686,59.912902599993686,59.912902599993686,m,1,0.548348199998145,60.490098699992814,60.99471519999497,,,001,iago,2022-12-31_01h49.39.183,MentalRot,2022.2.1,59.82986778973487,
0,135,y,m,135,2,2,34,7,,,,,,,,,,,60.99471519999497,60.99471519999497,60.99471519999497,60.99471519999497,60.99471519999497,m,1,0.5624114999955054,61.57336079999368,62.07666459999746,,,001,iago,2022-12-31_01h49.39.183,MentalRot,2022.2.1,59.82986778973487,
0,45,n,n,45,2,3,35,2,,,,,,,,,,,62.07666459999746,62.07666459999746,62.07666459999746,62.07666459999746,62.07666459999746,n,1,0.5747792999973171,62.67309669999668,63.17496899999969,,,001,iago,2022-12-31_01h49.39.183,MentalRot,2022.2.1,59.82986778973487,
0,225,y,m,225,2,4,36,11,,,,,,,,,,,63.17496899999969,63.17496899999969,63.17496899999969,63.17496899999969,63.17496899999969,m,1,0.5565518999937922,63.75683329999447,64.26367559999926,,,001,iago,2022-12-31_01h49.39.183,MentalRot,2022.2.1,59.82986778973487,
0,315,n,n,315,2,5,37,14,,,,,,,,,,,64.26367559999926,64.26367559999926,64.26367559999926,64.26367559999926,64.26367559999926,n,1,0.6043774999998277,64.88983649999864,65.39018229999783,,,001,iago,2022-12-31_01h49.39.183,MentalRot,2022.2.1,59.82986778973487,
0,225,n,n,225,2,6,38,10,,,,,,,,,,,65.39018229999783,65.39018229999783,65.39018229999783,65.39018229999783,65.39018229999783,n,1,0.7812388000020292,66.18996579999657,66.69633199999953,,,001,iago,2022-12-31_01h49.39.183,MentalRot,2022.2.1,59.82986778973487,
0,180,y,m,180,2,7,39,9,,,,,,,,,,,66.69633199999953,66.69633199999953,66.69633199999953,66.69633199999953,66.69633199999953,m,1,0.7077810999981011,67.42334969999501,67.92824319999636,,,001,iago,2022-12-31_01h49.39.183,MentalRot,2022.2.1,59.82986778973487,
0,90,n,n,90,2,8,40,4,,,,,,,,,,,67.92824319999636,67.92824319999636,67.92824319999636,67.92824319999636,67.92824319999636,n,1,1.315738400000555,69.27319409999473,69.77956409999751,,,001,iago,2022-12-31_01h49.39.183,MentalRot,2022.2.1,59.82986778973487,
0,135,n,n,135,2,9,41,6,,,,,,,,,,,69.77956409999751,69.77956409999751,69.77956409999751,69.77956409999751,69.77956409999751,n,1,0.6885217999952147,70.48994629999652,70.99488909999491,,,001,iago,2022-12-31_01h49.39.183,MentalRot,2022.2.1,59.82986778973487,
0,45,y,m,45,2,10,42,3,,,,,,,,,,,70.99488909999491,70.99488909999491,70.99488909999491,70.99488909999491,70.99488909999491,m,1,0.5054846000057296,71.52305889999843,72.03559929999756,,,001,iago,2022-12-31_01h49.39.183,MentalRot,2022.2.1,59.82986778973487,
0,90,y,m,90,2,11,43,5,,,,,,,,,,,72.03559929999756,72.03559929999756,72.03559929999756,72.03559929999756,72.03559929999756,m,1,0.5213132000062615,72.57321679999586,73.07830169999943,,,001,iago,2022-12-31_01h49.39.183,MentalRot,2022.2.1,59.82986778973487,
0,0,y,m,0,2,12,44,1,,,,,,,,,,,73.07830169999943,73.07830169999943,73.07830169999943,73.07830169999943,73.07830169999943,m,1,0.5820586999980151,73.69005249999464,74.19642069999827,,,001,iago,2022-12-31_01h49.39.183,MentalRot,2022.2.1,59.82986778973487,
0,315,y,m,315,2,13,45,15,,,,,,,,,,,74.19642069999827,74.19642069999827,74.19642069999827,74.19642069999827,74.19642069999827,m,1,0.5435188999981619,74.75613909999811,75.25706229999923,,,001,iago,2022-12-31_01h49.39.183,MentalRot,2022.2.1,59.82986778973487,
0,270,n,n,270,2,14,46,12,,,,,,,,,,,75.25706229999923,75.25706229999923,75.25706229999923,75.25706229999923,75.25706229999923,n,1,0.7223809999995865,76.00619899999583,76.51541099999304,,,001,iago,2022-12-31_01h49.39.183,MentalRot,2022.2.1,59.82986778973487,
0,0,n,n,0,2,15,47,0,,,,,,,,,,,76.51541099999304,76.51541099999304,76.51541099999304,76.51541099999304,76.51541099999304,n,1,0.552633400002378,77.08990419999463,77.59108219999325,,,001,iago,2022-12-31_01h49.39.183,MentalRot,2022.2.1,59.82986778973487,
0,315,n,n,315,3,0,48,14,,,,,,,,,,,77.59108219999325,77.59108219999325,77.59108219999325,77.59108219999325,77.59108219999325,n,1,0.5661384999984875,78.18923319999885,78.69761069999367,,,001,iago,2022-12-31_01h49.39.183,MentalRot,2022.2.1,59.82986778973487,
0,225,n,n,225,3,1,49,10,,,,,,,,,,,78.69761069999367,78.69761069999367,78.69761069999367,78.69761069999367,78.69761069999367,n,1,0.6661774000021978,79.3893678999957,79.89297659999283,,,001,iago,2022-12-31_01h49.39.183,MentalRot,2022.2.1,59.82986778973487,
0,0,n,n,0,3,2,50,0,,,,,,,,,,,79.89297659999283,79.89297659999283,79.89297659999283,79.89297659999283,79.89297659999283,n,1,0.6311386000015773,80.55606989999796,81.06534159999865,,,001,iago,2022-12-31_01h49.39.183,MentalRot,2022.2.1,59.82986778973487,
0,270,y,m,270,3,3,51,13,,,,,,,,,,,81.06534159999865,81.06534159999865,81.06534159999865,81.06534159999865,81.06534159999865,m,1,0.6903138999987277,81.77271169999585,82.27812289999565,,,001,iago,2022-12-31_01h49.39.183,MentalRot,2022.2.1,59.82986778973487,
0,45,y,m,45,3,4,52,3,,,,,,,,,,,82.27812289999565,82.27812289999565,82.27812289999565,82.27812289999565,82.27812289999565,m,1,0.5259919999953127,82.82251799999358,83.32916349999869,,,001,iago,2022-12-31_01h49.39.183,MentalRot,2022.2.1,59.82986778973487,
0,135,n,n,135,3,5,53,6,,,,,,,,,,,83.32916349999869,83.32916349999869,83.32916349999869,83.32916349999869,83.32916349999869,n,1,0.6510252000007313,84.00619919999735,84.50813859999471,,,001,iago,2022-12-31_01h49.39.183,MentalRot,2022.2.1,59.82986778973487,
0,270,n,n,270,3,6,54,12,,,,,,,,,,,84.50813859999471,84.50813859999471,84.50813859999471,84.50813859999471,84.50813859999471,n,1,0.6250031000017771,85.15591639999911,85.66502189999301,,,001,iago,2022-12-31_01h49.39.183,MentalRot,2022.2.1,59.82986778973487,
0,315,y,m,315,3,7,55,15,,,,,,,,,,,85.66502189999301,85.66502189999301,85.66502189999301,85.66502189999301,85.66502189999301,m,1,0.5394459999952232,86.22223379999923,86.72846639999625,,,001,iago,2022-12-31_01h49.39.183,MentalRot,2022.2.1,59.82986778973487,
0,180,n,n,180,3,8,56,8,,,,,,,,,,,86.72846639999625,86.72846639999625,86.72846639999625,86.72846639999625,86.72846639999625,n,1,0.7081727000040701,87.45568249999633,87.96233659999416,,,001,iago,2022-12-31_01h49.39.183,MentalRot,2022.2.1,59.82986778973487,
0,90,y,m,90,3,9,57,5,,,,,,,,,,,87.96233659999416,87.96233659999416,87.96233659999416,87.96233659999416,87.96233659999416,m,1,0.5697958000018843,88.5556562999991,89.06634359999589,,,001,iago,2022-12-31_01h49.39.183,MentalRot,2022.2.1,59.82986778973487,
0,90,n,n,90,3,10,58,4,,,,,,,,,,,89.06634359999589,89.06634359999589,89.06634359999589,89.06634359999589,89.06634359999589,n,1,0.8412098000044352,89.93909779999376,90.44564809999429,,,001,iago,2022-12-31_01h49.39.183,MentalRot,2022.2.1,59.82986778973487,
0,0,y,m,0,3,11,59,1,,,,,,,,,,,90.44564809999429,90.44564809999429,90.44564809999429,90.44564809999429,90.44564809999429,m,1,0.4944662999987486,90.97204429999692,91.47271909999836,,,001,iago,2022-12-31_01h49.39.183,MentalRot,2022.2.1,59.82986778973487,
0,225,y,m,225,3,12,60,11,,,,,,,,,,,91.47271909999836,91.47271909999836,91.47271909999836,91.47271909999836,91.47271909999836,m,1,0.6034358000033535,92.10528379999596,92.61166619999858,,,001,iago,2022-12-31_01h49.39.183,MentalRot,2022.2.1,59.82986778973487,
0,45,n,n,45,3,13,61,2,,,,,,,,,,,92.61166619999858,92.61166619999858,92.61166619999858,92.61166619999858,92.61166619999858,n,1,0.535801400001219,93.17282519999571,93.67277519999334,,,001,iago,2022-12-31_01h49.39.183,MentalRot,2022.2.1,59.82986778973487,
0,135,y,m,135,3,14,62,7,,,,,,,,,,,93.67277519999334,93.67277519999334,93.67277519999334,93.67277519999334,93.67277519999334,m,1,0.5722941999993054,94.27227149999817,94.77485259999958,,,001,iago,2022-12-31_01h49.39.183,MentalRot,2022.2.1,59.82986778973487,
0,180,y,m,180,3,15,63,9,,,,,,,,,,,94.77485259999958,94.77485259999958,94.77485259999958,94.77485259999958,94.77485259999958,m,1,0.6305705000049784,95.42238839999482,95.92832239999552,,,001,iago,2022-12-31_01h49.39.183,MentalRot,2022.2.1,59.82986778973487,
0,225,y,m,225,4,0,64,11,,,,,,,,,,,95.92832239999552,95.92832239999552,95.92832239999552,95.92832239999552,95.92832239999552,m,1,0.7798982000022079,96.73874549999891,97.2476733999938,,,001,iago,2022-12-31_01h49.39.183,MentalRot,2022.2.1,59.82986778973487,
0,90,n,n,90,4,1,65,4,,,,,,,,,,,97.2476733999938,97.2476733999938,97.2476733999938,97.2476733999938,97.2476733999938,n,1,0.6285766000000876,97.90539059999719,98.4119567999951,,,001,iago,2022-12-31_01h49.39.183,MentalRot,2022.2.1,59.82986778973487,
0,270,y,m,270,4,2,66,13,,,,,,,,,,,98.4119567999951,98.4119567999951,98.4119567999951,98.4119567999951,98.4119567999951,m,1,0.559765799996967,98.98834599999827,99.49517619999824,,,001,iago,2022-12-31_01h49.39.183,MentalRot,2022.2.1,59.82986778973487,
0,45,n,n,45,4,3,67,2,,,,,,,,,,,99.49517619999824,99.49517619999824,99.49517619999824,99.49517619999824,99.49517619999824,n,1,0.5164962000053492,100.03860799999529,100.54135969999334,,,001,iago,2022-12-31_01h49.39.183,MentalRot,2022.2.1,59.82986778973487,
0,225,n,n,225,4,4,68,10,,,,,,,,,,,100.54135969999334,100.54135969999334,100.54135969999334,100.54135969999334,100.54135969999334,n,1,0.6064561000021058,101.17188289999467,101.67716629999632,,,001,iago,2022-12-31_01h49.39.183,MentalRot,2022.2.1,59.82986778973487,
0,180,y,m,180,4,5,69,9,,,,,,,,,,,101.67716629999632,101.67716629999632,101.67716629999632,101.67716629999632,101.67716629999632,m,1,0.5757061999975122,102.27147789999435,102.77883949999523,,,001,iago,2022-12-31_01h49.39.183,MentalRot,2022.2.1,59.82986778973487,
0,315,n,n,315,4,6,70,14,,,,,,,,,,,102.77883949999523,102.77883949999523,102.77883949999523,102.77883949999523,102.77883949999523,n,1,0.5611343999989913,103.37256329999946,103.87804049999977,,,001,iago,2022-12-31_01h49.39.183,MentalRot,2022.2.1,59.82986778973487,
0,180,n,n,180,4,7,71,8,,,,,,,,,,,103.87804049999977,103.87804049999977,103.87804049999977,103.87804049999977,103.87804049999977,n,1,0.6457430000009481,104.55470599999535,105.05975569999282,,,001,iago,2022-12-31_01h49.39.183,MentalRot,2022.2.1,59.82986778973487,
0,315,y,m,315,4,8,72,15,,,,,,,,,,,105.05975569999282,105.05975569999282,105.05975569999282,105.05975569999282,105.05975569999282,n,0,0.5607540999990306,105.63814439999987,106.14586409999902,,,001,iago,2022-12-31_01h49.39.183,MentalRot,2022.2.1,59.82986778973487,
0,135,y,m,135,4,9,73,7,,,,,,,,,,,106.14586409999902,106.14586409999902,106.14586409999902,106.14586409999902,106.14586409999902,m,1,0.6504200999988825,106.82158819999313,107.32915849999699,,,001,iago,2022-12-31_01h49.39.183,MentalRot,2022.2.1,59.82986778973487,
0,135,n,n,135,4,10,74,6,,,,,,,,,,,107.32915849999699,107.32915849999699,107.32915849999699,107.32915849999699,107.32915849999699,n,1,0.554375899999286,107.90481369999907,108.4119367999956,,,001,iago,2022-12-31_01h49.39.183,MentalRot,2022.2.1,59.82986778973487,
0,0,y,m,0,4,11,75,1,,,,,,,,,,,108.4119367999956,108.4119367999956,108.4119367999956,108.4119367999956,108.4119367999956,m,1,0.5042130000001634,108.93807249999372,109.44721919999574,,,001,iago,2022-12-31_01h49.39.183,MentalRot,2022.2.1,59.82986778973487,
0,270,n,n,270,4,12,76,12,,,,,,,,,,,109.44721919999574,109.44721919999574,109.44721919999574,109.44721919999574,109.44721919999574,n,1,0.7173433999996632,110.18816359999619,110.69649849999405,,,001,iago,2022-12-31_01h49.39.183,MentalRot,2022.2.1,59.82986778973487,
0,45,y,m,45,4,13,77,3,,,,,,,,,,,110.69649849999405,110.69649849999405,110.69649849999405,110.69649849999405,110.69649849999405,m,1,0.4841653999974369,111.20473009999841,111.70827769999596,,,001,iago,2022-12-31_01h49.39.183,MentalRot,2022.2.1,59.82986778973487,
0,90,y,m,90,4,14,78,5,,,,,,,,,,,111.70827769999596,111.70827769999596,111.70827769999596,111.70827769999596,111.70827769999596,m,1,0.696360599999025,112.42149169999902,112.92810429999372,,,001,iago,2022-12-31_01h49.39.183,MentalRot,2022.2.1,59.82986778973487,
0,0,n,n,0,4,15,79,0,,,,,,,,,,,112.92810429999372,112.92810429999372,112.92810429999372,112.92810429999372,112.92810429999372,n,1,0.5315212999994401,113.48768669999845,113.9912930999999,,,001,iago,2022-12-31_01h49.39.183,MentalRot,2022.2.1,59.82986778973487,
0,0,y,m,0,5,0,80,1,,,,,,,,,,,113.9912930999999,113.9912930999999,113.9912930999999,113.9912930999999,113.9912930999999,m,1,0.5409041999955662,114.55467489999864,115.06232139999338,,,001,iago,2022-12-31_01h49.39.183,MentalRot,2022.2.1,59.82986778973487,
0,135,n,n,135,5,1,81,6,,,,,,,,,,,115.06232139999338,115.06232139999338,115.06232139999338,115.06232139999338,115.06232139999338,n,1,0.5734811000002082,115.65474179999728,116.16385869999795,,,001,iago,2022-12-31_01h49.39.183,MentalRot,2022.2.1,59.82986778973487,
0,90,n,n,90,5,2,82,4,,,,,,,,,,,116.16385869999795,116.16385869999795,116.16385869999795,116.16385869999795,116.16385869999795,n,1,0.5277911000011954,116.72103879999486,117.22163679999358,,,001,iago,2022-12-31_01h49.39.183,MentalRot,2022.2.1,59.82986778973487,
0,0,n,n,0,5,3,83,0,,,,,,,,,,,117.22163679999358,117.22163679999358,117.22163679999358,117.22163679999358,117.22163679999358,n,1,0.5349710000009509,117.78783759999351,118.29194229999848,,,001,iago,2022-12-31_01h49.39.183,MentalRot,2022.2.1,59.82986778973487,
0,270,y,m,270,5,4,84,13,,,,,,,,,,,118.29194229999848,118.29194229999848,118.29194229999848,118.29194229999848,118.29194229999848,n,0,0.5837342999948305,118.90416289999848,119.40935579999496,,,001,iago,2022-12-31_01h49.39.183,MentalRot,2022.2.1,59.82986778973487,
0,270,n,n,270,5,5,85,12,,,,,,,,,,,119.40935579999496,119.40935579999496,119.40935579999496,119.40935579999496,119.40935579999496,n,1,0.7224378999962937,120.15414229999442,120.6616853999949,,,001,iago,2022-12-31_01h49.39.183,MentalRot,2022.2.1,59.82986778973487,
0,315,y,m,315,5,6,86,15,,,,,,,,,,,120.6616853999949,120.6616853999949,120.6616853999949,120.6616853999949,120.6616853999949,m,1,0.47081449999677716,121.15418879999925,121.6605289999934,,,001,iago,2022-12-31_01h49.39.183,MentalRot,2022.2.1,59.82986778973487,
0,45,y,m,45,5,7,87,3,,,,,,,,,,,121.6605289999934,121.6605289999934,121.6605289999934,121.6605289999934,121.6605289999934,m,1,0.5362725999948452,122.22075859999313,122.72277949999989,,,001,iago,2022-12-31_01h49.39.183,MentalRot,2022.2.1,59.82986778973487,
0,180,y,m,180,5,8,88,9,,,,,,,,,,,122.72277949999989,122.72277949999989,122.72277949999989,122.72277949999989,122.72277949999989,m,1,0.6899179999963962,123.43696319999435,123.93914029999723,,,001,iago,2022-12-31_01h49.39.183,MentalRot,2022.2.1,59.82986778973487,
0,315,n,n,315,5,9,89,14,,,,,,,,,,,123.93914029999723,123.93914029999723,123.93914029999723,123.93914029999723,123.93914029999723,n,1,0.584829899999022,124.55361839999387,125.05993999999919,,,001,iago,2022-12-31_01h49.39.183,MentalRot,2022.2.1,59.82986778973487,
0,225,n,n,225,5,10,90,10,,,,,,,,,,,125.05993999999919,125.05993999999919,125.05993999999919,125.05993999999919,125.05993999999919,n,1,0.5999235999988741,125.6872191999937,126.19322699999611,,,001,iago,2022-12-31_01h49.39.183,MentalRot,2022.2.1,59.82986778973487,
0,180,n,n,180,5,11,91,8,,,,,,,,,,,126.19322699999611,126.19322699999611,126.19322699999611,126.19322699999611,126.19322699999611,n,1,0.6434614999961923,126.85363199999847,127.36005779999687,,,001,iago,2022-12-31_01h49.39.183,MentalRot,2022.2.1,59.82986778973487,
0,45,n,n,45,5,12,92,2,,,,,,,,,,,127.36005779999687,127.36005779999687,127.36005779999687,127.36005779999687,127.36005779999687,n,1,0.5728576999972574,127.95412759999454,128.46330099999614,,,001,iago,2022-12-31_01h49.39.183,MentalRot,2022.2.1,59.82986778973487,
0,135,y,m,135,5,13,93,7,,,,,,,,,,,128.46330099999614,128.46330099999614,128.46330099999614,128.46330099999614,128.46330099999614,m,1,0.7647551000045496,129.2537536999953,129.76094389999344,,,001,iago,2022-12-31_01h49.39.183,MentalRot,2022.2.1,59.82986778973487,
0,90,y,m,90,5,14,94,5,,,,,,,,,,,129.76094389999344,129.76094389999344,129.76094389999344,129.76094389999344,129.76094389999344,m,1,0.6032951000015601,130.38734369999293,130.8947887999966,,,001,iago,2022-12-31_01h49.39.183,MentalRot,2022.2.1,59.82986778973487,
0,225,y,m,225,5,15,95,11,,,,,,,,,,,130.8947887999966,130.8947887999966,130.8947887999966,130.8947887999966,130.8947887999966,m,1,0.7172072000030312,131.63700469999458,132.13735559999623,,,001,iago,2022-12-31_01h49.39.183,MentalRot,2022.2.1,59.82986778973487,
0,45,y,m,45,6,0,96,3,,,,,,,,,,,132.13735559999623,132.13735559999623,132.13735559999623,132.13735559999623,132.13735559999623,m,1,0.7301348000037251,132.88693619999685,133.3937164999952,,,001,iago,2022-12-31_01h49.39.183,MentalRot,2022.2.1,59.82986778973487,
0,315,n,n,315,6,1,97,14,,,,,,,,,,,133.3937164999952,133.3937164999952,133.3937164999952,133.3937164999952,133.3937164999952,n,1,0.5949443999998039,134.02078279999841,134.5277350999968,,,001,iago,2022-12-31_01h49.39.183,MentalRot,2022.2.1,59.82986778973487,
0,180,n,n,180,6,2,98,8,,,,,,,,,,,134.5277350999968,134.5277350999968,134.5277350999968,134.5277350999968,134.5277350999968,n,1,0.7405309000023408,135.28689219999796,135.79296949999843,,,001,iago,2022-12-31_01h49.39.183,MentalRot,2022.2.1,59.82986778973487,
0,270,y,m,270,6,3,99,13,,,,,,,,,,,135.79296949999843,135.79296949999843,135.79296949999843,135.79296949999843,135.79296949999843,m,1,0.5944236999930581,136.4034759999995,136.91126699999586,,,001,iago,2022-12-31_01h49.39.183,MentalRot,2022.2.1,59.82986778973487,
0,90,n,n,90,6,4,100,4,,,,,,,,,,,136.91126699999586,136.91126699999586,136.91126699999586,136.91126699999586,136.91126699999586,n,1,0.7083872000002884,137.6369185999938,138.14279499999975,,,001,iago,2022-12-31_01h49.39.183,MentalRot,2022.2.1,59.82986778973487,
0,315,y,m,315,6,5,101,15,,,,,,,,,,,138.14279499999975,138.14279499999975,138.14279499999975,138.14279499999975,138.14279499999975,m,1,0.48490229999879375,138.65381499999785,139.1599333999984,,,001,iago,2022-12-31_01h49.39.183,MentalRot,2022.2.1,59.82986778973487,
0,225,y,m,225,6,6,102,11,,,,,,,,,,,139.1599333999984,139.1599333999984,139.1599333999984,139.1599333999984,139.1599333999984,m,1,0.6922827999951551,139.8700508999973,140.37735729999986,,,001,iago,2022-12-31_01h49.39.183,MentalRot,2022.2.1,59.82986778973487,
0,0,n,n,0,6,7,103,0,,,,,,,,,,,140.37735729999986,140.37735729999986,140.37735729999986,140.37735729999986,140.37735729999986,n,1,0.6021966999978758,141.0031430999952,141.50954179999826,,,001,iago,2022-12-31_01h49.39.183,MentalRot,2022.2.1,59.82986778973487,
0,90,y,m,90,6,8,104,5,,,,,,,,,,,141.50954179999826,141.50954179999826,141.50954179999826,141.50954179999826,141.50954179999826,m,1,0.5819725999972434,142.11995449999813,142.6249822999962,,,001,iago,2022-12-31_01h49.39.183,MentalRot,2022.2.1,59.82986778973487,
0,270,n,n,270,6,9,105,12,,,,,,,,,,,142.6249822999962,142.6249822999962,142.6249822999962,142.6249822999962,142.6249822999962,n,1,0.6597000000037951,143.30326109999442,143.81029479999415,,,001,iago,2022-12-31_01h49.39.183,MentalRot,2022.2.1,59.82986778973487,
0,180,y,m,180,6,10,106,9,,,,,,,,,,,143.81029479999415,143.81029479999415,143.81029479999415,143.81029479999415,143.81029479999415,m,1,0.7140830999996979,144.55293479999818,145.0595003999988,,,001,iago,2022-12-31_01h49.39.183,MentalRot,2022.2.1,59.82986778973487,
0,135,n,n,135,6,11,107,6,,,,,,,,,,,145.0595003999988,145.0595003999988,145.0595003999988,145.0595003999988,145.0595003999988,n,1,0.7763397999951849,145.85305739999603,146.35984389999794,,,001,iago,2022-12-31_01h49.39.183,MentalRot,2022.2.1,59.82986778973487,
0,225,n,n,225,6,12,108,10,,,,,,,,,,,146.35984389999794,146.35984389999794,146.35984389999794,146.35984389999794,146.35984389999794,n,1,0.6922030999994604,147.06957839999814,147.5739498999974,,,001,iago,2022-12-31_01h49.39.183,MentalRot,2022.2.1,59.82986778973487,
0,45,n,n,45,6,13,109,2,,,,,,,,,,,147.5739498999974,147.5739498999974,147.5739498999974,147.5739498999974,147.5739498999974,n,1,0.7500369999979739,148.35288589999982,148.8604908999987,,,001,iago,2022-12-31_01h49.39.183,MentalRot,2022.2.1,59.82986778973487,
0,135,y,m,135,6,14,110,7,,,,,,,,,,,148.8604908999987,148.8604908999987,148.8604908999987,148.8604908999987,148.8604908999987,m,1,0.7916374999986147,149.6694964999988,150.1744333999959,,,001,iago,2022-12-31_01h49.39.183,MentalRot,2022.2.1,59.82986778973487,
0,0,y,m,0,6,15,111,1,,,,,,,,,,,150.1744333999959,150.1744333999959,150.1744333999959,150.1744333999959,150.1744333999959,m,1,0.6451686000000336,150.83601629999612,151.3424046,,,001,iago,2022-12-31_01h49.39.183,MentalRot,2022.2.1,59.82986778973487,
0,90,y,m,90,7,0,112,5,,,,,,,,,,,151.3424046,151.3424046,151.3424046,151.3424046,151.3424046,m,1,0.5894702999939909,151.95297479999863,152.45508769999287,,,001,iago,2022-12-31_01h49.39.183,MentalRot,2022.2.1,59.82986778973487,
0,135,y,m,135,7,1,113,7,,,,,,,,,,,152.45508769999287,152.45508769999287,152.45508769999287,152.45508769999287,152.45508769999287,m,1,0.7096296999952756,153.18583639999997,153.69305699999677,,,001,iago,2022-12-31_01h49.39.183,MentalRot,2022.2.1,59.82986778973487,
0,225,y,m,225,7,2,114,11,,,,,,,,,,,153.69305699999677,153.69305699999677,153.69305699999677,153.69305699999677,153.69305699999677,m,1,0.6547672000015154,154.36916899999778,154.87587769999664,,,001,iago,2022-12-31_01h49.39.183,MentalRot,2022.2.1,59.82986778973487,
0,90,n,n,90,7,3,115,4,,,,,,,,,,,154.87587769999664,154.87587769999664,154.87587769999664,154.87587769999664,154.87587769999664,n,1,0.7116622000030475,155.61923819999356,156.1240136999986,,,001,iago,2022-12-31_01h49.39.183,MentalRot,2022.2.1,59.82986778973487,
0,45,n,n,45,7,4,116,2,,,,,,,,,,,156.1240136999986,156.1240136999986,156.1240136999986,156.1240136999986,156.1240136999986,n,1,0.5519493000028888,156.702483699999,157.20976549999614,,,001,iago,2022-12-31_01h49.39.183,MentalRot,2022.2.1,59.82986778973487,
0,315,y,m,315,7,5,117,15,,,,,,,,,,,157.20976549999614,157.20976549999614,157.20976549999614,157.20976549999614,157.20976549999614,m,1,0.6665653999953065,157.9022724999959,158.40845589999662,,,001,iago,2022-12-31_01h49.39.183,MentalRot,2022.2.1,59.82986778973487,
0,180,y,m,180,7,6,118,9,,,,,,,,,,,158.40845589999662,158.40845589999662,158.40845589999662,158.40845589999662,158.40845589999662,m,1,0.6598379999995814,159.08550759999343,159.59170189999713,,,001,iago,2022-12-31_01h49.39.183,MentalRot,2022.2.1,59.82986778973487,
0,0,y,m,0,7,7,119,1,,,,,,,,,,,159.59170189999713,159.59170189999713,159.59170189999713,159.59170189999713,159.59170189999713,m,1,0.48398570000426844,160.1022973999934,160.60541139999987,,,001,iago,2022-12-31_01h49.39.183,MentalRot,2022.2.1,59.82986778973487,
0,315,n,n,315,7,8,120,14,,,,,,,,,,,160.60541139999987,160.60541139999987,160.60541139999987,160.60541139999987,160.60541139999987,n,1,0.5904650000011316,161.2188443999985,161.72783969999728,,,001,iago,2022-12-31_01h49.39.183,MentalRot,2022.2.1,59.82986778973487,
0,135,n,n,135,7,9,121,6,,,,,,,,,,,161.72783969999728,161.72783969999728,161.72783969999728,161.72783969999728,161.72783969999728,n,1,0.6929228000008152,162.45274079999945,162.95536859999993,,,001,iago,2022-12-31_01h49.39.183,MentalRot,2022.2.1,59.82986778973487,
0,270,n,n,270,7,10,122,12,,,,,,,,,,,162.95536859999993,162.95536859999993,162.95536859999993,162.95536859999993,162.95536859999993,n,1,0.6005491999967489,163.58563609999692,164.09270699999615,,,001,iago,2022-12-31_01h49.39.183,MentalRot,2022.2.1,59.82986778973487,
0,0,n,n,0,7,11,123,0,,,,,,,,,,,164.09270699999615,164.09270699999615,164.09270699999615,164.09270699999615,164.09270699999615,n,1,0.486791399998765,164.60259979999682,165.10823439999513,,,001,iago,2022-12-31_01h49.39.183,MentalRot,2022.2.1,59.82986778973487,
0,45,y,m,45,7,12,124,3,,,,,,,,,,,165.10823439999513,165.10823439999513,165.10823439999513,165.10823439999513,165.10823439999513,m,1,0.5680621999999858,165.70222299999296,166.2102487999946,,,001,iago,2022-12-31_01h49.39.183,MentalRot,2022.2.1,59.82986778973487,
0,180,n,n,180,7,13,125,8,,,,,,,,,,,166.2102487999946,166.2102487999946,166.2102487999946,166.2102487999946,166.2102487999946,n,1,0.642425899997761,166.86867459999485,167.3733984999999,,,001,iago,2022-12-31_01h49.39.183,MentalRot,2022.2.1,59.82986778973487,
0,225,n,n,225,7,14,126,10,,,,,,,,,,,167.3733984999999,167.3733984999999,167.3733984999999,167.3733984999999,167.3733984999999,n,1,0.654767100000754,168.05267869999807,168.55871999999363,,,001,iago,2022-12-31_01h49.39.183,MentalRot,2022.2.1,59.82986778973487,
0,270,y,m,270,7,15,127,13,,,,,,,,,,,168.55871999999363,168.55871999999363,168.55871999999363,168.55871999999363,168.55871999999363,m,1,0.6773122000013245,169.26883159999852,169.77644749999308,,,001,iago,2022-12-31_01h49.39.183,MentalRot,2022.2.1,59.82986778973487,
0,315,y,m,315,8,0,128,15,,,,,,,,,,,169.77644749999308,169.77644749999308,169.77644749999308,169.77644749999308,169.77644749999308,m,1,0.5478622000009636,170.3522731999983,170.85674289999588,,,001,iago,2022-12-31_01h49.39.183,MentalRot,2022.2.1,59.82986778973487,
0,135,n,n,135,8,1,129,6,,,,,,,,,,,170.85674289999588,170.85674289999588,170.85674289999588,170.85674289999588,170.85674289999588,n,1,0.8032242999979644,171.68526729999576,172.19172009999602,,,001,iago,2022-12-31_01h49.39.183,MentalRot,2022.2.1,59.82986778973487,
0,0,n,n,0,8,2,130,0,,,,,,,,,,,172.19172009999602,172.19172009999602,172.19172009999602,172.19172009999602,172.19172009999602,n,1,0.5251904000033392,172.73514449999493,173.24172369999724,,,001,iago,2022-12-31_01h49.39.183,MentalRot,2022.2.1,59.82986778973487,
0,90,n,n,90,8,3,131,4,,,,,,,,,,,173.24172369999724,173.24172369999724,173.24172369999724,173.24172369999724,173.24172369999724,n,1,0.5711538000032306,173.83505619999778,174.3438443999985,,,001,iago,2022-12-31_01h49.39.183,MentalRot,2022.2.1,59.82986778973487,
0,225,y,m,225,8,4,132,11,,,,,,,,,,,174.3438443999985,174.3438443999985,174.3438443999985,174.3438443999985,174.3438443999985,m,1,1.2277186999999685,175.60170779999316,176.10974619999615,,,001,iago,2022-12-31_01h49.39.183,MentalRot,2022.2.1,59.82986778973487,
0,270,n,n,270,8,5,133,12,,,,,,,,,,,176.10974619999615,176.10974619999615,176.10974619999615,176.10974619999615,176.10974619999615,n,1,0.7581196000028285,176.88474389999465,177.39198749999923,,,001,iago,2022-12-31_01h49.39.183,MentalRot,2022.2.1,59.82986778973487,
0,180,n,n,180,8,6,134,8,,,,,,,,,,,177.39198749999923,177.39198749999923,177.39198749999923,177.39198749999923,177.39198749999923,n,1,0.6687023000049521,178.08495809999295,178.59184139999707,,,001,iago,2022-12-31_01h49.39.183,MentalRot,2022.2.1,59.82986778973487,
0,225,n,n,225,8,7,135,10,,,,,,,,,,,178.59184139999707,178.59184139999707,178.59184139999707,178.59184139999707,178.59184139999707,n,1,0.5397216000055778,179.15141759999824,179.65975929999695,,,001,iago,2022-12-31_01h49.39.183,MentalRot,2022.2.1,59.82986778973487,
0,45,n,n,45,8,8,136,2,,,,,,,,,,,179.65975929999695,179.65975929999695,179.65975929999695,179.65975929999695,179.65975929999695,n,1,0.6325084999989485,180.31798959999287,180.82419149999623,,,001,iago,2022-12-31_01h49.39.183,MentalRot,2022.2.1,59.82986778973487,
0,135,y,m,135,8,9,137,7,,,,,,,,,,,180.82419149999623,180.82419149999623,180.82419149999623,180.82419149999623,180.82419149999623,m,1,0.691410100000212,181.5348648999934,182.0390757999994,,,001,iago,2022-12-31_01h49.39.183,MentalRot,2022.2.1,59.82986778973487,
0,45,y,m,45,8,10,138,3,,,,,,,,,,,182.0390757999994,182.0390757999994,182.0390757999994,182.0390757999994,182.0390757999994,m,1,0.5891283999953885,182.65124409999407,183.15598949999548,,,001,iago,2022-12-31_01h49.39.183,MentalRot,2022.2.1,59.82986778973487,
0,90,y,m,90,8,11,139,5,,,,,,,,,,,183.15598949999548,183.15598949999548,183.15598949999548,183.15598949999548,183.15598949999548,m,1,0.6475878999990528,183.83466559999943,184.34051899999758,,,001,iago,2022-12-31_01h49.39.183,MentalRot,2022.2.1,59.82986778973487,
0,0,y,m,0,8,12,140,1,,,,,,,,,,,184.34051899999758,184.34051899999758,184.34051899999758,184.34051899999758,184.34051899999758,m,1,0.7352736999964691,185.1011326999942,185.6013779999994,,,001,iago,2022-12-31_01h49.39.183,MentalRot,2022.2.1,59.82986778973487,
0,180,y,m,180,8,13,141,9,,,,,,,,,,,185.6013779999994,185.6013779999994,185.6013779999994,185.6013779999994,185.6013779999994,m,1,0.6198678000000655,186.25111159999506,186.75851039999543,,,001,iago,2022-12-31_01h49.39.183,MentalRot,2022.2.1,59.82986778973487,
0,270,y,m,270,8,14,142,13,,,,,,,,,,,186.75851039999543,186.75851039999543,186.75851039999543,186.75851039999543,186.75851039999543,m,1,0.7260191999957897,187.50105589999293,188.00670819999505,,,001,iago,2022-12-31_01h49.39.183,MentalRot,2022.2.1,59.82986778973487,
0,315,n,n,315,8,15,143,14,,,,,,,,,,,188.00670819999505,188.00670819999505,188.00670819999505,188.00670819999505,188.00670819999505,n,1,0.6213590000043041,188.6511515999955,189.15588239999488,,,001,iago,2022-12-31_01h49.39.183,MentalRot,2022.2.1,59.82986778973487,
0,315,y,m,315,9,0,144,15,,,,,,,,,,,189.15588239999488,189.15588239999488,189.15588239999488,189.15588239999488,189.15588239999488,m,1,0.519832400001178,189.70090149999305,190.20588289999432,,,001,iago,2022-12-31_01h49.39.183,MentalRot,2022.2.1,59.82986778973487,
0,45,n,n,45,9,1,145,2,,,,,,,,,,,190.20588289999432,190.20588289999432,190.20588289999432,190.20588289999432,190.20588289999432,n,1,0.7017392999987351,190.93421189999935,191.43999949999852,,,001,iago,2022-12-31_01h49.39.183,MentalRot,2022.2.1,59.82986778973487,
0,135,n,n,135,9,2,146,6,,,,,,,,,,,191.43999949999852,191.43999949999852,191.43999949999852,191.43999949999852,191.43999949999852,n,1,0.7166403000010177,192.18411229999765,192.68495979999716,,,001,iago,2022-12-31_01h49.39.183,MentalRot,2022.2.1,59.82986778973487,
0,0,y,m,0,9,3,147,1,,,,,,,,,,,192.68495979999716,192.68495979999716,192.68495979999716,192.68495979999716,192.68495979999716,m,1,0.5591901000007056,193.26731279999512,193.77135029999772,,,001,iago,2022-12-31_01h49.39.183,MentalRot,2022.2.1,59.82986778973487,
0,180,y,m,180,9,4,148,9,,,,,,,,,,,193.77135029999772,193.77135029999772,193.77135029999772,193.77135029999772,193.77135029999772,m,1,0.7607219999990775,194.55124469999282,195.0522689999998,,,001,iago,2022-12-31_01h49.39.183,MentalRot,2022.2.1,59.82986778973487,
0,315,n,n,315,9,5,149,14,,,,,,,,,,,195.0522689999998,195.0522689999998,195.0522689999998,195.0522689999998,195.0522689999998,n,1,0.6241345000016736,195.7008893999955,196.2075388999947,,,001,iago,2022-12-31_01h49.39.183,MentalRot,2022.2.1,59.82986778973487,
0,225,y,m,225,9,6,150,11,,,,,,,,,,,196.2075388999947,196.2075388999947,196.2075388999947,196.2075388999947,196.2075388999947,m,1,0.5804425000023912,196.81733909999457,197.3244554999983,,,001,iago,2022-12-31_01h49.39.183,MentalRot,2022.2.1,59.82986778973487,
0,225,n,n,225,9,7,151,10,,,,,,,,,,,197.3244554999983,197.3244554999983,197.3244554999983,197.3244554999983,197.3244554999983,n,1,0.7116758000047412,198.06717589999607,198.5750390999965,,,001,iago,2022-12-31_01h49.39.183,MentalRot,2022.2.1,59.82986778973487,
0,270,y,m,270,9,8,152,13,,,,,,,,,,,198.5750390999965,198.5750390999965,198.5750390999965,198.5750390999965,198.5750390999965,m,1,0.6767384999984642,199.28394599999592,199.7893214999931,,,001,iago,2022-12-31_01h49.39.183,MentalRot,2022.2.1,59.82986778973487,
0,0,n,n,0,9,9,153,0,,,,,,,,,,,199.7893214999931,199.7893214999931,199.7893214999931,199.7893214999931,199.7893214999931,n,1,0.6143869000006816,200.43477269999858,200.94119719999435,,,001,iago,2022-12-31_01h49.39.183,MentalRot,2022.2.1,59.82986778973487,
0,90,n,n,90,9,10,154,4,,,,,,,,,,,200.94119719999435,200.94119719999435,200.94119719999435,200.94119719999435,200.94119719999435,n,1,0.6304082999995444,201.60036579999723,202.1071954999934,,,001,iago,2022-12-31_01h49.39.183,MentalRot,2022.2.1,59.82986778973487,
0,45,y,m,45,9,11,155,3,,,,,,,,,,,202.1071954999934,202.1071954999934,202.1071954999934,202.1071954999934,202.1071954999934,m,1,0.48908120000123745,202.61726879999333,203.12485749999905,,,001,iago,2022-12-31_01h49.39.183,MentalRot,2022.2.1,59.82986778973487,
0,270,n,n,270,9,12,156,12,,,,,,,,,,,203.12485749999905,203.12485749999905,203.12485749999905,203.12485749999905,203.12485749999905,n,1,0.6468602000022656,203.80010559999937,204.302966999996,,,001,iago,2022-12-31_01h49.39.183,MentalRot,2022.2.1,59.82986778973487,
0,135,y,m,135,9,13,157,7,,,,,,,,,,,204.302966999996,204.302966999996,204.302966999996,204.302966999996,204.302966999996,n,0,0.48470649999944726,204.81705989999318,205.32420009999623,,,001,iago,2022-12-31_01h49.39.183,MentalRot,2022.2.1,59.82986778973487,
0,90,y,m,90,9,14,158,5,,,,,,,,,,,205.32420009999623,205.32420009999623,205.32420009999623,205.32420009999623,205.32420009999623,m,1,0.5681561000019428,205.91723609999462,206.42298669999582,,,001,iago,2022-12-31_01h49.39.183,MentalRot,2022.2.1,59.82986778973487,
0,180,n,n,180,9,15,159,8,,,,,,,,,,,206.42298669999582,206.42298669999582,206.42298669999582,206.42298669999582,206.42298669999582,n,1,0.7171954999939771,207.16681689999677,207.66691359999822,,,001,iago,2022-12-31_01h49.39.183,MentalRot,2022.2.1,59.82986778973487,
,,,,,,,,,,,,,,,,,,,,,,,,,,,,,207.66691359999822,207.66691359999822,,,,,,,
