leftori,rightori,same,corrAns,angle,trials.thisRepN,trials.thisTrialN,trials.thisN,trials.thisIndex,instr_txt_1.started,instr_key_1.started,instr_key_1.keys,instr_key_1.rt,image_L_3.started,image_R_3.started,instr_txt_2.started,instr_key_2.started,mini_pause_2.started,mini_pause_2.stopped,image_L.started,image_R.started,response.started,main_instr.started,trial_count.started,response.keys,response.corr,response.rt,mini_pause.started,mini_pause.stopped,end_txt.started,end_key.started,session,participant,date,expName,psychopyVersion,frameRate,
,,,,,,,,,34.616792700006044,34.616792700006044,m,0.9630553999886615,,,,,,,,,,,,,,,,,,,001,kily,2022-12-31_09h19.34.502,MentalRot,2022.2.1,60.47521423150257,
0,90,y,m,90,0,0,0,5,,,,,35.67587259999709,35.67587259999709,35.67587259999709,35.67587259999709,38.23631849999947,39.76333770000201,39.76333770000201,39.76333770000201,39.76333770000201,39.76333770000201,39.76333770000201,m,1,0.9527940999978455,40.73609210000723,41.24303620000137,,,001,kily,2022-12-31_09h19.34.502,MentalRot,2022.2.1,60.47521423150257,
0,315,y,m,315,0,1,1,15,,,,,,,,,,,41.24303620000137,41.24303620000137,41.24303620000137,41.24303620000137,41.24303620000137,m,1,0.5456152999977348,41.81996059999801,42.32046679999621,,,001,kily,2022-12-31_09h19.34.502,MentalRot,2022.2.1,60.47521423150257,
0,225,y,m,225,0,2,2,11,,,,,,,,,,,42.32046679999621,42.32046679999621,42.32046679999621,42.32046679999621,42.32046679999621,m,1,0.6109926999924937,42.953306299998076,43.454473600009806,,,001,kily,2022-12-31_09h19.34.502,MentalRot,2022.2.1,60.47521423150257,
0,270,y,m,270,0,3,3,13,,,,,,,,,,,43.454473600009806,43.454473600009806,43.454473600009806,43.454473600009806,43.454473600009806,m,1,0.5897682999930112,44.06977430000552,44.57798790000379,,,001,kily,2022-12-31_09h19.34.502,MentalRot,2022.2.1,60.47521423150257,
0,45,y,m,45,0,4,4,3,,,,,,,,,,,44.57798790000379,44.57798790000379,44.57798790000379,44.57798790000379,44.57798790000379,m,1,0.4259676999936346,45.03648900000553,45.54795870000089,,,001,kily,2022-12-31_09h19.34.502,MentalRot,2022.2.1,60.47521423150257,
0,270,n,n,270,0,5,5,12,,,,,,,,,,,45.54795870000089,45.54795870000089,45.54795870000089,45.54795870000089,45.54795870000089,n,1,0.8795137999986764,46.453350700001465,46.95989990000089,,,001,kily,2022-12-31_09h19.34.502,MentalRot,2022.2.1,60.47521423150257,
0,90,n,n,90,0,6,6,4,,,,,,,,,,,46.95989990000089,46.95989990000089,46.95989990000089,46.95989990000089,46.95989990000089,m,0,0.9158827000064775,47.90327049999905,48.409350200003246,,,001,kily,2022-12-31_09h19.34.502,MentalRot,2022.2.1,60.47521423150257,
0,315,n,n,315,0,7,7,14,,,,,,,,,,,48.409350200003246,48.409350200003246,48.409350200003246,48.409350200003246,48.409350200003246,m,0,0.8516883000120288,49.28634940000484,49.792588800002704,,,001,kily,2022-12-31_09h19.34.502,MentalRot,2022.2.1,60.47521423150257,
0,135,y,m,135,0,8,8,7,,,,,,,,,,,49.792588800002704,49.792588800002704,49.792588800002704,49.792588800002704,49.792588800002704,m,1,0.6831791000004159,50.50454720000562,,,,001,kily,2022-12-31_09h19.34.502,MentalRot,2022.2.1,60.47521423150257,
0,135,n,n,135,0,9,9,6,,,,,,,,,,,51.020005900005344,51.020005900005344,51.020005900005344,51.020005900005344,51.020005900005344,m,0,0.6961880000017118,51.737137900010566,,,,001,kily,2022-12-31_09h19.34.502,MentalRot,2022.2.1,60.47521423150257,
0,45,n,n,45,0,10,10,2,,,,,,,,,,,52.262059400003636,52.262059400003636,52.262059400003636,52.262059400003636,52.262059400003636,n,1,0.6295324000093387,52.91882479999913,53.42906570000923,,,001,kily,2022-12-31_09h19.34.502,MentalRot,2022.2.1,60.47521423150257,
0,0,y,m,0,0,11,11,1,,,,,,,,,,,53.42906570000923,53.42906570000923,53.42906570000923,53.42906570000923,53.42906570000923,m,1,0.4947132999950554,53.95211110000673,54.46131759999844,,,001,kily,2022-12-31_09h19.34.502,MentalRot,2022.2.1,60.47521423150257,
0,180,n,n,180,0,12,12,8,,,,,,,,,,,54.46131759999844,54.46131759999844,54.46131759999844,54.46131759999844,54.46131759999844,n,1,1.8225437000073725,56.302855600006296,56.81171059999906,,,001,kily,2022-12-31_09h19.34.502,MentalRot,2022.2.1,60.47521423150257,
0,225,n,n,225,0,13,13,10,,,,,,,,,,,56.81171059999906,56.81171059999906,56.81171059999906,56.81171059999906,56.81171059999906,n,1,1.7849447000044165,58.619158000001335,59.12016920000315,,,001,kily,2022-12-31_09h19.34.502,MentalRot,2022.2.1,60.47521423150257,
0,0,n,n,0,0,14,14,0,,,,,,,,,,,59.12016920000315,59.12016920000315,59.12016920000315,59.12016920000315,59.12016920000315,n,1,0.771892899996601,59.918602700010524,60.41979960000026,,,001,kily,2022-12-31_09h19.34.502,MentalRot,2022.2.1,60.47521423150257,
0,180,y,m,180,0,15,15,9,,,,,,,,,,,60.41979960000026,60.41979960000026,60.41979960000026,60.41979960000026,60.41979960000026,m,1,0.8157423999946332,61.25179890000436,61.75277190000634,,,001,kily,2022-12-31_09h19.34.502,MentalRot,2022.2.1,60.47521423150257,
0,90,n,n,90,1,0,16,4,,,,,,,,,,,61.75277190000634,61.75277190000634,61.75277190000634,61.75277190000634,61.75277190000634,n,1,0.7866786000085995,62.569935400009854,,,,001,kily,2022-12-31_09h19.34.502,MentalRot,2022.2.1,60.47521423150257,
0,270,y,m,270,1,1,17,13,,,,,,,,,,,63.08596710000711,63.08596710000711,63.08596710000711,63.08596710000711,63.08596710000711,m,1,0.5824066000059247,63.6852138999966,64.18595700000878,,,001,kily,2022-12-31_09h19.34.502,MentalRot,2022.2.1,60.47521423150257,
0,315,n,n,315,1,2,18,14,,,,,,,,,,,64.18595700000878,64.18595700000878,64.18595700000878,64.18595700000878,64.18595700000878,n,1,0.5940752000024077,64.8027737000084,65.3061347000039,,,001,kily,2022-12-31_09h19.34.502,MentalRot,2022.2.1,60.47521423150257,
0,315,y,m,315,1,3,19,15,,,,,,,,,,,65.3061347000039,65.3061347000039,65.3061347000039,65.3061347000039,65.3061347000039,m,1,0.44135459999961313,65.76932439999655,,,,001,kily,2022-12-31_09h19.34.502,MentalRot,2022.2.1,60.47521423150257,
0,270,n,n,270,1,4,20,12,,,,,,,,,,,66.28562770001008,66.28562770001008,66.28562770001008,66.28562770001008,66.28562770001008,n,1,0.7183012000023155,67.03592049999861,67.54226280000876,,,001,kily,2022-12-31_09h19.34.502,MentalRot,2022.2.1,60.47521423150257,
0,135,n,n,135,1,5,21,6,,,,,,,,,,,67.54226280000876,67.54226280000876,67.54226280000876,67.54226280000876,67.54226280000876,n,1,0.5902510000014445,68.1521136000083,68.6526545000088,,,001,kily,2022-12-31_09h19.34.502,MentalRot,2022.2.1,60.47521423150257,
0,45,n,n,45,1,6,22,2,,,,,,,,,,,68.6526545000088,68.6526545000088,68.6526545000088,68.6526545000088,68.6526545000088,n,1,0.591379000004963,69.26958079999895,,,,001,kily,2022-12-31_09h19.34.502,MentalRot,2022.2.1,60.47521423150257,
0,0,n,n,0,1,7,23,0,,,,,,,,,,,69.79064940000535,69.79064940000535,69.79064940000535,69.79064940000535,69.79064940000535,n,1,0.5177602000039769,70.33616540000367,,,,001,kily,2022-12-31_09h19.34.502,MentalRot,2022.2.1,60.47521423150257,
0,45,y,m,45,1,8,24,3,,,,,,,,,,,70.85737160001008,70.85737160001008,70.85737160001008,70.85737160001008,70.85737160001008,m,1,0.46685230000002775,71.35213910001039,71.85815130000992,,,001,kily,2022-12-31_09h19.34.502,MentalRot,2022.2.1,60.47521423150257,
0,135,y,m,135,1,9,25,7,,,,,,,,,,,71.85815130000992,71.85815130000992,71.85815130000992,71.85815130000992,71.85815130000992,m,1,0.6025116999953752,72.48548309999751,72.9856684999977,,,001,kily,2022-12-31_09h19.34.502,MentalRot,2022.2.1,60.47521423150257,
0,225,y,m,225,1,10,26,11,,,,,,,,,,,72.9856684999977,72.9856684999977,72.9856684999977,72.9856684999977,72.9856684999977,m,1,0.5940498999989359,73.6029841999989,,,,001,kily,2022-12-31_09h19.34.502,MentalRot,2022.2.1,60.47521423150257,
0,225,n,n,225,1,11,27,10,,,,,,,,,,,74.11906480000471,74.11906480000471,74.11906480000471,74.11906480000471,74.11906480000471,n,1,0.5900522000010824,74.73621909999929,75.23793480001041,,,001,kily,2022-12-31_09h19.34.502,MentalRot,2022.2.1,60.47521423150257,
0,0,y,m,0,1,12,28,1,,,,,,,,,,,75.23793480001041,75.23793480001041,75.23793480001041,75.23793480001041,75.23793480001041,m,1,0.5661538999993354,75.83586740000464,,,,001,kily,2022-12-31_09h19.34.502,MentalRot,2022.2.1,60.47521423150257,
0,180,y,m,180,1,13,29,9,,,,,,,,,,,76.35211330000311,76.35211330000311,76.35211330000311,76.35211330000311,76.35211330000311,m,1,0.5407892000075663,76.91857930000697,77.42688470000576,,,001,kily,2022-12-31_09h19.34.502,MentalRot,2022.2.1,60.47521423150257,
0,90,y,m,90,1,14,30,5,,,,,,,,,,,77.42688470000576,77.42688470000576,77.42688470000576,77.42688470000576,77.42688470000576,m,1,0.600560899998527,78.05103100000997,78.55620289999933,,,001,kily,2022-12-31_09h19.34.502,MentalRot,2022.2.1,60.47521423150257,
0,180,n,n,180,1,15,31,8,,,,,,,,,,,78.55620289999933,78.55620289999933,78.55620289999933,78.55620289999933,78.55620289999933,n,1,0.6237625000067055,79.20207549999759,,,,001,kily,2022-12-31_09h19.34.502,MentalRot,2022.2.1,60.47521423150257,
0,0,n,n,0,2,0,32,0,,,,,,,,,,,79.72420019999845,79.72420019999845,79.72420019999845,79.72420019999845,79.72420019999845,m,0,0.6484531000023708,80.4025435000076,,,,001,kily,2022-12-31_09h19.34.502,MentalRot,2022.2.1,60.47521423150257,
0,45,y,m,45,2,1,33,3,,,,,,,,,,,80.92584789999819,80.92584789999819,80.92584789999819,80.92584789999819,80.92584789999819,m,1,0.462002800006303,81.41766720000305,81.92768239999714,,,001,kily,2022-12-31_09h19.34.502,MentalRot,2022.2.1,60.47521423150257,
0,315,y,m,315,2,2,34,15,,,,,,,,,,,81.92768239999714,81.92768239999714,81.92768239999714,81.92768239999714,81.92768239999714,m,1,0.5641949999990175,82.51816210000834,83.01981530000921,,,001,kily,2022-12-31_09h19.34.502,MentalRot,2022.2.1,60.47521423150257,
0,45,n,n,45,2,3,35,2,,,,,,,,,,,83.01981530000921,83.01981530000921,83.01981530000921,83.01981530000921,83.01981530000921,n,1,0.5116903999878559,83.55096269999922,84.05979410000145,,,001,kily,2022-12-31_09h19.34.502,MentalRot,2022.2.1,60.47521423150257,
0,0,y,m,0,2,4,36,1,,,,,,,,,,,84.05979410000145,84.05979410000145,84.05979410000145,84.05979410000145,84.05979410000145,m,1,0.47166129999095574,84.5507845999964,85.056465200003,,,001,kily,2022-12-31_09h19.34.502,MentalRot,2022.2.1,60.47521423150257,
0,180,n,n,180,2,5,37,8,,,,,,,,,,,85.056465200003,85.056465200003,85.056465200003,85.056465200003,85.056465200003,n,1,0.5633560999995098,85.650887900003,86.15735770000902,,,001,kily,2022-12-31_09h19.34.502,MentalRot,2022.2.1,60.47521423150257,
0,315,n,n,315,2,6,38,14,,,,,,,,,,,86.15735770000902,86.15735770000902,86.15735770000902,86.15735770000902,86.15735770000902,n,1,0.5020936000073561,86.68391580000753,87.1899107000063,,,001,kily,2022-12-31_09h19.34.502,MentalRot,2022.2.1,60.47521423150257,
0,225,y,m,225,2,7,39,11,,,,,,,,,,,87.1899107000063,87.1899107000063,87.1899107000063,87.1899107000063,87.1899107000063,m,1,0.5908996999933152,87.80091830001038,88.3071132000041,,,001,kily,2022-12-31_09h19.34.502,MentalRot,2022.2.1,60.47521423150257,
0,135,y,m,135,2,8,40,7,,,,,,,,,,,88.3071132000041,88.3071132000041,88.3071132000041,88.3071132000041,88.3071132000041,n,0,0.4964676999952644,88.83483259999775,89.33874330000253,,,001,kily,2022-12-31_09h19.34.502,MentalRot,2022.2.1,60.47521423150257,
0,90,y,m,90,2,9,41,5,,,,,,,,,,,89.33874330000253,89.33874330000253,89.33874330000253,89.33874330000253,89.33874330000253,m,1,0.45758079999359325,89.8172651000059,90.31985949999944,,,001,kily,2022-12-31_09h19.34.502,MentalRot,2022.2.1,60.47521423150257,
0,270,y,m,270,2,10,42,13,,,,,,,,,,,90.31985949999944,90.31985949999944,90.31985949999944,90.31985949999944,90.31985949999944,m,1,0.5893799000041327,90.93422510000528,91.44051880000916,,,001,kily,2022-12-31_09h19.34.502,MentalRot,2022.2.1,60.47521423150257,
0,270,n,n,270,2,11,43,12,,,,,,,,,,,91.44051880000916,91.44051880000916,91.44051880000916,91.44051880000916,91.44051880000916,n,1,0.5953371999930823,92.06719390000217,92.57426660000056,,,001,kily,2022-12-31_09h19.34.502,MentalRot,2022.2.1,60.47521423150257,
0,90,n,n,90,2,12,44,4,,,,,,,,,,,92.57426660000056,92.57426660000056,92.57426660000056,92.57426660000056,92.57426660000056,n,1,0.5901629999862053,93.18367520000902,93.69051320001017,,,001,kily,2022-12-31_09h19.34.502,MentalRot,2022.2.1,60.47521423150257,
0,180,y,m,180,2,13,45,9,,,,,,,,,,,93.69051320001017,93.69051320001017,93.69051320001017,93.69051320001017,93.69051320001017,m,1,0.5217545999912545,94.23375400000077,94.74202200000582,,,001,kily,2022-12-31_09h19.34.502,MentalRot,2022.2.1,60.47521423150257,
0,225,n,n,225,2,14,46,10,,,,,,,,,,,94.74202200000582,94.74202200000582,94.74202200000582,94.74202200000582,94.74202200000582,n,1,0.6137779999990016,95.38365840000915,95.88939310000569,,,001,kily,2022-12-31_09h19.34.502,MentalRot,2022.2.1,60.47521423150257,
0,135,n,n,135,2,15,47,6,,,,,,,,,,,95.88939310000569,95.88939310000569,95.88939310000569,95.88939310000569,95.88939310000569,n,1,0.6751674999977695,96.58351409999887,97.09020360000432,,,001,kily,2022-12-31_09h19.34.502,MentalRot,2022.2.1,60.47521423150257,
0,315,y,m,315,3,0,48,15,,,,,,,,,,,97.09020360000432,97.09020360000432,97.09020360000432,97.09020360000432,97.09020360000432,m,1,0.5614828999969177,97.68363520001003,98.1915724999999,,,001,kily,2022-12-31_09h19.34.502,MentalRot,2022.2.1,60.47521423150257,
0,225,y,m,225,3,1,49,11,,,,,,,,,,,98.1915724999999,98.1915724999999,98.1915724999999,98.1915724999999,98.1915724999999,m,1,0.7247305999917444,98.93348610000976,99.43442279999726,,,001,kily,2022-12-31_09h19.34.502,MentalRot,2022.2.1,60.47521423150257,
0,270,n,n,270,3,2,50,12,,,,,,,,,,,99.43442279999726,99.43442279999726,99.43442279999726,99.43442279999726,99.43442279999726,n,1,0.5055776999943191,99.96679030000814,100.46774059999734,,,001,kily,2022-12-31_09h19.34.502,MentalRot,2022.2.1,60.47521423150257,
0,45,y,m,45,3,3,51,3,,,,,,,,,,,100.46774059999734,100.46774059999734,100.46774059999734,100.46774059999734,100.46774059999734,m,1,0.6237887000024784,101.11662939999951,101.61770699999761,,,001,kily,2022-12-31_09h19.34.502,MentalRot,2022.2.1,60.47521423150257,
0,180,y,m,180,3,4,52,9,,,,,,,,,,,101.61770699999761,101.61770699999761,101.61770699999761,101.61770699999761,101.61770699999761,m,1,0.6342127999960212,102.28335749999678,102.78858059999766,,,001,kily,2022-12-31_09h19.34.502,MentalRot,2022.2.1,60.47521423150257,
0,90,y,m,90,3,5,53,5,,,,,,,,,,,102.78858059999766,102.78858059999766,102.78858059999766,102.78858059999766,102.78858059999766,m,1,0.5995967999915592,103.41664799999853,103.92372340000293,,,001,kily,2022-12-31_09h19.34.502,MentalRot,2022.2.1,60.47521423150257,
0,0,n,n,0,3,6,54,0,,,,,,,,,,,103.92372340000293,103.92372340000293,103.92372340000293,103.92372340000293,103.92372340000293,n,1,0.5204459999949904,104.466562600006,104.96761049999623,,,001,kily,2022-12-31_09h19.34.502,MentalRot,2022.2.1,60.47521423150257,
0,180,n,n,180,3,7,55,8,,,,,,,,,,,104.96761049999623,104.96761049999623,104.96761049999623,104.96761049999623,104.96761049999623,n,1,0.6283021999988705,105.61654689999705,106.11753930000123,,,001,kily,2022-12-31_09h19.34.502,MentalRot,2022.2.1,60.47521423150257,
0,315,n,n,315,3,8,56,14,,,,,,,,,,,106.11753930000123,106.11753930000123,106.11753930000123,106.11753930000123,106.11753930000123,n,1,0.5179884999961359,106.66716749999614,107.16772240000137,,,001,kily,2022-12-31_09h19.34.502,MentalRot,2022.2.1,60.47521423150257,
0,270,y,m,270,3,9,57,13,,,,,,,,,,,107.16772240000137,107.16772240000137,107.16772240000137,107.16772240000137,107.16772240000137,n,0,0.5084413000004133,107.70037770000636,108.20896030000586,,,001,kily,2022-12-31_09h19.34.502,MentalRot,2022.2.1,60.47521423150257,
0,135,y,m,135,3,10,58,7,,,,,,,,,,,108.20896030000586,108.20896030000586,108.20896030000586,108.20896030000586,108.20896030000586,m,1,0.5305644999898504,108.76640380000754,109.2669784000027,,,001,kily,2022-12-31_09h19.34.502,MentalRot,2022.2.1,60.47521423150257,
0,0,y,m,0,3,11,59,1,,,,,,,,,,,109.2669784000027,109.2669784000027,109.2669784000027,109.2669784000027,109.2669784000027,m,1,0.47326990000146907,109.76639010000508,110.2675939000037,,,001,kily,2022-12-31_09h19.34.502,MentalRot,2022.2.1,60.47521423150257,
0,45,n,n,45,3,12,60,2,,,,,,,,,,,110.2675939000037,110.2675939000037,110.2675939000037,110.2675939000037,110.2675939000037,n,1,0.5286901000072248,110.81631960000959,111.31711329999962,,,001,kily,2022-12-31_09h19.34.502,MentalRot,2022.2.1,60.47521423150257,
0,135,n,n,135,3,13,61,6,,,,,,,,,,,111.31711329999962,111.31711329999962,111.31711329999962,111.31711329999962,111.31711329999962,n,1,0.5593371999857482,111.899568000008,112.4003561999998,,,001,kily,2022-12-31_09h19.34.502,MentalRot,2022.2.1,60.47521423150257,
0,90,n,n,90,3,14,62,4,,,,,,,,,,,112.4003561999998,112.4003561999998,112.4003561999998,112.4003561999998,112.4003561999998,n,1,0.659757700006594,113.08286860000226,113.58832550000807,,,001,kily,2022-12-31_09h19.34.502,MentalRot,2022.2.1,60.47521423150257,
0,225,n,n,225,3,15,63,10,,,,,,,,,,,113.58832550000807,113.58832550000807,113.58832550000807,113.58832550000807,113.58832550000807,n,1,0.6082339999993565,114.21610810000857,114.72431770000549,,,001,kily,2022-12-31_09h19.34.502,MentalRot,2022.2.1,60.47521423150257,
0,45,n,n,45,4,0,64,2,,,,,,,,,,,114.72431770000549,114.72431770000549,114.72431770000549,114.72431770000549,114.72431770000549,n,1,0.535424999994575,115.28271719999611,115.7918001000071,,,001,kily,2022-12-31_09h19.34.502,MentalRot,2022.2.1,60.47521423150257,
0,0,y,m,0,4,1,65,1,,,,,,,,,,,115.7918001000071,115.7918001000071,115.7918001000071,115.7918001000071,115.7918001000071,m,1,0.4681218999903649,116.28268350000144,116.78459640000074,,,001,kily,2022-12-31_09h19.34.502,MentalRot,2022.2.1,60.47521423150257,
0,135,y,m,135,4,2,66,7,,,,,,,,,,,116.78459640000074,116.78459640000074,116.78459640000074,116.78459640000074,116.78459640000074,m,1,0.5631056999991415,117.36594319999858,117.87351570000465,,,001,kily,2022-12-31_09h19.34.502,MentalRot,2022.2.1,60.47521423150257,
0,135,n,n,135,4,3,67,6,,,,,,,,,,,117.87351570000465,117.87351570000465,117.87351570000465,117.87351570000465,117.87351570000465,n,1,0.6184943000116618,118.51596920000156,119.02499920000264,,,001,kily,2022-12-31_09h19.34.502,MentalRot,2022.2.1,60.47521423150257,
0,180,y,m,180,4,4,68,9,,,,,,,,,,,119.02499920000264,119.02499920000264,119.02499920000264,119.02499920000264,119.02499920000264,m,1,0.6590892000094755,119.71582890000718,120.22572860000946,,,001,kily,2022-12-31_09h19.34.502,MentalRot,2022.2.1,60.47521423150257,
0,180,n,n,180,4,5,69,8,,,,,,,,,,,120.22572860000946,120.22572860000946,120.22572860000946,120.22572860000946,120.22572860000946,n,1,0.586146399989957,120.83280760000343,121.33352610000293,,,001,kily,2022-12-31_09h19.34.502,MentalRot,2022.2.1,60.47521423150257,
0,270,n,n,270,4,6,70,12,,,,,,,,,,,121.33352610000293,121.33352610000293,121.33352610000293,121.33352610000293,121.33352610000293,n,1,0.6382275000069058,121.9990919999982,122.50621700000193,,,001,kily,2022-12-31_09h19.34.502,MentalRot,2022.2.1,60.47521423150257,
0,90,n,n,90,4,7,71,4,,,,,,,,,,,122.50621700000193,122.50621700000193,122.50621700000193,122.50621700000193,122.50621700000193,n,1,0.6017390999913914,123.13234520000697,123.64295850000053,,,001,kily,2022-12-31_09h19.34.502,MentalRot,2022.2.1,60.47521423150257,
0,0,n,n,0,4,8,72,0,,,,,,,,,,,123.64295850000053,123.64295850000053,123.64295850000053,123.64295850000053,123.64295850000053,n,1,0.5368861000024481,124.1989012999984,124.70685950000188,,,001,kily,2022-12-31_09h19.34.502,MentalRot,2022.2.1,60.47521423150257,
0,315,y,m,315,4,9,73,15,,,,,,,,,,,124.70685950000188,124.70685950000188,124.70685950000188,124.70685950000188,124.70685950000188,m,1,0.5767214999941643,125.31565380000393,125.82224320000387,,,001,kily,2022-12-31_09h19.34.502,MentalRot,2022.2.1,60.47521423150257,
0,90,y,m,90,4,10,74,5,,,,,,,,,,,125.82224320000387,125.82224320000387,125.82224320000387,125.82224320000387,125.82224320000387,m,1,0.5896601999993436,126.43214669999725,126.93737650000548,,,001,kily,2022-12-31_09h19.34.502,MentalRot,2022.2.1,60.47521423150257,
0,315,n,n,315,4,11,75,14,,,,,,,,,,,126.93737650000548,126.93737650000548,126.93737650000548,126.93737650000548,126.93737650000548,n,1,0.4905529999959981,127.44876600000134,127.94972970000526,,,001,kily,2022-12-31_09h19.34.502,MentalRot,2022.2.1,60.47521423150257,
0,270,y,m,270,4,12,76,13,,,,,,,,,,,127.94972970000526,127.94972970000526,127.94972970000526,127.94972970000526,127.94972970000526,n,0,0.44584530001156963,128.41587419999996,128.92564020000282,,,001,kily,2022-12-31_09h19.34.502,MentalRot,2022.2.1,60.47521423150257,
0,225,n,n,225,4,13,77,10,,,,,,,,,,,128.92564020000282,128.92564020000282,128.92564020000282,128.92564020000282,128.92564020000282,n,1,0.5663199999980861,129.51597259999835,130.02487239999755,,,001,kily,2022-12-31_09h19.34.502,MentalRot,2022.2.1,60.47521423150257,
0,225,y,m,225,4,14,78,11,,,,,,,,,,,130.02487239999755,130.02487239999755,130.02487239999755,130.02487239999755,130.02487239999755,n,0,0.5402075999882072,130.58261080000375,131.08917560000555,,,001,kily,2022-12-31_09h19.34.502,MentalRot,2022.2.1,60.47521423150257,
0,45,y,m,45,4,15,79,3,,,,,,,,,,,131.08917560000555,131.08917560000555,131.08917560000555,131.08917560000555,131.08917560000555,m,1,0.4829982000082964,131.598702400006,132.10908700000437,,,001,kily,2022-12-31_09h19.34.502,MentalRot,2022.2.1,60.47521423150257,
0,45,y,m,45,5,0,80,3,,,,,,,,,,,132.10908700000437,132.10908700000437,132.10908700000437,132.10908700000437,132.10908700000437,m,1,0.4397441999899456,132.56531050000922,133.06600970000727,,,001,kily,2022-12-31_09h19.34.502,MentalRot,2022.2.1,60.47521423150257,
0,90,y,m,90,5,1,81,5,,,,,,,,,,,133.06600970000727,133.06600970000727,133.06600970000727,133.06600970000727,133.06600970000727,m,1,0.4896271000034176,133.58171610000136,134.08740370000305,,,001,kily,2022-12-31_09h19.34.502,MentalRot,2022.2.1,60.47521423150257,
0,135,n,n,135,5,2,82,6,,,,,,,,,,,134.08740370000305,134.08740370000305,134.08740370000305,134.08740370000305,134.08740370000305,n,1,0.5967852000030689,134.71527770000102,135.22403219999978,,,001,kily,2022-12-31_09h19.34.502,MentalRot,2022.2.1,60.47521423150257,
0,270,y,m,270,5,3,83,13,,,,,,,,,,,135.22403219999978,135.22403219999978,135.22403219999978,135.22403219999978,135.22403219999978,m,1,0.5800579999922775,135.83165700000245,136.3325124999974,,,001,kily,2022-12-31_09h19.34.502,MentalRot,2022.2.1,60.47521423150257,
0,0,n,n,0,5,4,84,0,,,,,,,,,,,136.3325124999974,136.3325124999974,136.3325124999974,136.3325124999974,136.3325124999974,n,1,0.590968199991039,136.948581500008,137.45485710000503,,,001,kily,2022-12-31_09h19.34.502,MentalRot,2022.2.1,60.47521423150257,
0,90,n,n,90,5,5,85,4,,,,,,,,,,,137.45485710000503,137.45485710000503,137.45485710000503,137.45485710000503,137.45485710000503,m,0,0.48492020000412595,137.9650449000037,138.4745041999995,,,001,kily,2022-12-31_09h19.34.502,MentalRot,2022.2.1,60.47521423150257,
0,270,n,n,270,5,6,86,12,,,,,,,,,,,138.4745041999995,138.4745041999995,138.4745041999995,138.4745041999995,138.4745041999995,n,1,0.5937655000016093,139.09859609999694,139.59914380000555,,,001,kily,2022-12-31_09h19.34.502,MentalRot,2022.2.1,60.47521423150257,
0,315,n,n,315,5,7,87,14,,,,,,,,,,,139.59914380000555,139.59914380000555,139.59914380000555,139.59914380000555,139.59914380000555,n,1,0.4690331000019796,140.09871360000398,140.61085910000838,,,001,kily,2022-12-31_09h19.34.502,MentalRot,2022.2.1,60.47521423150257,
0,225,y,m,225,5,8,88,11,,,,,,,,,,,140.61085910000838,140.61085910000838,140.61085910000838,140.61085910000838,140.61085910000838,m,1,0.5051468000019668,141.13206550000177,141.6324936000019,,,001,kily,2022-12-31_09h19.34.502,MentalRot,2022.2.1,60.47521423150257,
0,135,y,m,135,5,9,89,7,,,,,,,,,,,141.6324936000019,141.6324936000019,141.6324936000019,141.6324936000019,141.6324936000019,m,1,0.643897999994806,142.29882540000835,142.8017841999972,,,001,kily,2022-12-31_09h19.34.502,MentalRot,2022.2.1,60.47521423150257,
0,0,y,m,0,5,10,90,1,,,,,,,,,,,142.8017841999972,142.8017841999972,142.8017841999972,142.8017841999972,142.8017841999972,m,1,0.47515860000567045,143.29866700001003,143.80482430000848,,,001,kily,2022-12-31_09h19.34.502,MentalRot,2022.2.1,60.47521423150257,
0,315,y,m,315,5,11,91,15,,,,,,,,,,,143.80482430000848,143.80482430000848,143.80482430000848,143.80482430000848,143.80482430000848,m,1,0.4876374999876134,144.31474519999756,144.81569570000283,,,001,kily,2022-12-31_09h19.34.502,MentalRot,2022.2.1,60.47521423150257,
0,45,n,n,45,5,12,92,2,,,,,,,,,,,144.81569570000283,144.81569570000283,144.81569570000283,144.81569570000283,144.81569570000283,n,1,0.5559413999872049,145.3984863000078,145.9055759000039,,,001,kily,2022-12-31_09h19.34.502,MentalRot,2022.2.1,60.47521423150257,
0,225,n,n,225,5,13,93,10,,,,,,,,,,,145.9055759000039,145.9055759000039,145.9055759000039,145.9055759000039,145.9055759000039,n,1,0.7063936999911675,146.63115300000936,147.14078119999613,,,001,kily,2022-12-31_09h19.34.502,MentalRot,2022.2.1,60.47521423150257,
0,180,n,n,180,5,14,94,8,,,,,,,,,,,147.14078119999613,147.14078119999613,147.14078119999613,147.14078119999613,147.14078119999613,n,1,0.479347600004985,147.64791040000273,148.14966809999896,,,001,kily,2022-12-31_09h19.34.502,MentalRot,2022.2.1,60.47521423150257,
0,180,y,m,180,5,15,95,9,,,,,,,,,,,148.14966809999896,148.14966809999896,148.14966809999896,148.14966809999896,148.14966809999896,m,1,0.6143303999997443,148.78121990000363,149.2830890000041,,,001,kily,2022-12-31_09h19.34.502,MentalRot,2022.2.1,60.47521423150257,
0,90,n,n,90,6,0,96,4,,,,,,,,,,,149.2830890000041,149.2830890000041,149.2830890000041,149.2830890000041,149.2830890000041,n,1,0.5930271999968681,149.89773440000135,150.40494469999976,,,001,kily,2022-12-31_09h19.34.502,MentalRot,2022.2.1,60.47521423150257,
0,315,n,n,315,6,1,97,14,,,,,,,,,,,150.40494469999976,150.40494469999976,150.40494469999976,150.40494469999976,150.40494469999976,n,1,0.4785647999960929,150.91443230000732,151.42285030000494,,,001,kily,2022-12-31_09h19.34.502,MentalRot,2022.2.1,60.47521423150257,
0,90,y,m,90,6,2,98,5,,,,,,,,,,,151.42285030000494,151.42285030000494,151.42285030000494,151.42285030000494,151.42285030000494,m,1,0.48554090000106953,151.93105510000896,152.43819890001032,,,001,kily,2022-12-31_09h19.34.502,MentalRot,2022.2.1,60.47521423150257,
0,180,y,m,180,6,3,99,9,,,,,,,,,,,152.43819890001032,152.43819890001032,152.43819890001032,152.43819890001032,152.43819890001032,n,0,0.5897765999980038,153.04764129999967,153.5539751000033,,,001,kily,2022-12-31_09h19.34.502,MentalRot,2022.2.1,60.47521423150257,
0,315,y,m,315,6,4,100,15,,,,,,,,,,,153.5539751000033,153.5539751000033,153.5539751000033,153.5539751000033,153.5539751000033,m,1,0.546177299998817,154.13092440000037,154.64196799999627,,,001,kily,2022-12-31_09h19.34.502,MentalRot,2022.2.1,60.47521423150257,
0,0,n,n,0,6,5,101,0,,,,,,,,,,,154.64196799999627,154.64196799999627,154.64196799999627,154.64196799999627,154.64196799999627,n,1,0.5376872999913758,155.1974984999979,155.70384339999873,,,001,kily,2022-12-31_09h19.34.502,MentalRot,2022.2.1,60.47521423150257,
0,135,y,m,135,6,6,102,7,,,,,,,,,,,155.70384339999873,155.70384339999873,155.70384339999873,155.70384339999873,155.70384339999873,m,1,0.6198008000064874,156.34751980000874,156.85367300000507,,,001,kily,2022-12-31_09h19.34.502,MentalRot,2022.2.1,60.47521423150257,
0,180,n,n,180,6,7,103,8,,,,,,,,,,,156.85367300000507,156.85367300000507,156.85367300000507,156.85367300000507,156.85367300000507,n,1,0.7112094999902183,157.58138190000318,158.09065270000428,,,001,kily,2022-12-31_09h19.34.502,MentalRot,2022.2.1,60.47521423150257,
0,225,n,n,225,6,8,104,10,,,,,,,,,,,158.09065270000428,158.09065270000428,158.09065270000428,158.09065270000428,158.09065270000428,n,1,0.5368957000027876,158.64794830000028,159.15412439999636,,,001,kily,2022-12-31_09h19.34.502,MentalRot,2022.2.1,60.47521423150257,
0,225,y,m,225,6,9,105,11,,,,,,,,,,,159.15412439999636,159.15412439999636,159.15412439999636,159.15412439999636,159.15412439999636,m,1,0.6343296999984886,159.8143846000021,160.32509250000294,,,001,kily,2022-12-31_09h19.34.502,MentalRot,2022.2.1,60.47521423150257,
0,0,y,m,0,6,10,106,1,,,,,,,,,,,160.32509250000294,160.32509250000294,160.32509250000294,160.32509250000294,160.32509250000294,m,1,0.5264987999980804,160.88048590000835,161.38597950000258,,,001,kily,2022-12-31_09h19.34.502,MentalRot,2022.2.1,60.47521423150257,
0,135,n,n,135,6,11,107,6,,,,,,,,,,,161.38597950000258,161.38597950000258,161.38597950000258,161.38597950000258,161.38597950000258,n,1,0.5857699000043795,161.99829560000217,,,,001,kily,2022-12-31_09h19.34.502,MentalRot,2022.2.1,60.47521423150257,
0,270,n,n,270,6,12,108,12,,,,,,,,,,,162.52463650000573,162.52463650000573,162.52463650000573,162.52463650000573,162.52463650000573,n,1,0.5591733000037493,163.11374030000297,163.6204429000063,,,001,kily,2022-12-31_09h19.34.502,MentalRot,2022.2.1,60.47521423150257,
0,45,y,m,45,6,13,109,3,,,,,,,,,,,163.6204429000063,163.6204429000063,163.6204429000063,163.6204429000063,163.6204429000063,m,1,0.5118839999922784,164.16375649999827,164.67272329999832,,,001,kily,2022-12-31_09h19.34.502,MentalRot,2022.2.1,60.47521423150257,
0,45,n,n,45,6,14,110,2,,,,,,,,,,,164.67272329999832,164.67272329999832,164.67272329999832,164.67272329999832,164.67272329999832,n,1,0.5632792999967933,165.26370700000552,165.77288899999985,,,001,kily,2022-12-31_09h19.34.502,MentalRot,2022.2.1,60.47521423150257,
0,270,y,m,270,6,15,111,13,,,,,,,,,,,165.77288899999985,165.77288899999985,165.77288899999985,165.77288899999985,165.77288899999985,m,1,0.6153751000092598,166.41377860000648,166.92180830000143,,,001,kily,2022-12-31_09h19.34.502,MentalRot,2022.2.1,60.47521423150257,
0,135,y,m,135,7,0,112,7,,,,,,,,,,,166.92180830000143,166.92180830000143,166.92180830000143,166.92180830000143,166.92180830000143,n,0,0.45878100000845734,167.3969769999967,167.8982593999972,,,001,kily,2022-12-31_09h19.34.502,MentalRot,2022.2.1,60.47521423150257,
0,45,n,n,45,7,1,113,2,,,,,,,,,,,167.8982593999972,167.8982593999972,167.8982593999972,167.8982593999972,167.8982593999972,n,1,0.6096597999858204,168.5312023000006,169.03557249999722,,,001,kily,2022-12-31_09h19.34.502,MentalRot,2022.2.1,60.47521423150257,
0,180,y,m,180,7,2,114,9,,,,,,,,,,,169.03557249999722,169.03557249999722,169.03557249999722,169.03557249999722,169.03557249999722,n,0,0.6320928999921307,169.6967702999973,170.2060222,,,001,kily,2022-12-31_09h19.34.502,MentalRot,2022.2.1,60.47521423150257,
0,90,n,n,90,7,3,115,4,,,,,,,,,,,170.2060222,170.2060222,170.2060222,170.2060222,170.2060222,n,1,0.5179585999867413,170.74684880000132,171.24957610000274,,,001,kily,2022-12-31_09h19.34.502,MentalRot,2022.2.1,60.47521423150257,
0,225,y,m,225,7,4,116,11,,,,,,,,,,,171.24957610000274,171.24957610000274,171.24957610000274,171.24957610000274,171.24957610000274,m,1,0.642317699996056,171.91348519999883,172.42225750000216,,,001,kily,2022-12-31_09h19.34.502,MentalRot,2022.2.1,60.47521423150257,
0,0,n,n,0,7,5,117,0,,,,,,,,,,,172.42225750000216,172.42225750000216,172.42225750000216,172.42225750000216,172.42225750000216,n,1,0.47714319999795407,172.9306740000029,173.43160029999854,,,001,kily,2022-12-31_09h19.34.502,MentalRot,2022.2.1,60.47521423150257,
0,315,y,m,315,7,6,118,15,,,,,,,,,,,173.43160029999854,173.43160029999854,173.43160029999854,173.43160029999854,173.43160029999854,m,1,0.5244218000007095,173.98060360000818,174.4885809999978,,,001,kily,2022-12-31_09h19.34.502,MentalRot,2022.2.1,60.47521423150257,
0,270,n,n,270,7,7,119,12,,,,,,,,,,,174.4885809999978,174.4885809999978,174.4885809999978,174.4885809999978,174.4885809999978,n,1,0.5717047999933129,175.080598200002,175.58551770000486,,,001,kily,2022-12-31_09h19.34.502,MentalRot,2022.2.1,60.47521423150257,
0,315,n,n,315,7,8,120,14,,,,,,,,,,,175.58551770000486,175.58551770000486,175.58551770000486,175.58551770000486,175.58551770000486,n,1,0.6107366000069305,176.21326250000857,176.72205880000547,,,001,kily,2022-12-31_09h19.34.502,MentalRot,2022.2.1,60.47521423150257,
0,45,y,m,45,7,9,121,3,,,,,,,,,,,176.72205880000547,176.72205880000547,176.72205880000547,176.72205880000547,176.72205880000547,m,1,0.6578913999983342,177.39669409999624,177.89794560000882,,,001,kily,2022-12-31_09h19.34.502,MentalRot,2022.2.1,60.47521423150257,
0,270,y,m,270,7,10,122,13,,,,,,,,,,,177.89794560000882,177.89794560000882,177.89794560000882,177.89794560000882,177.89794560000882,m,1,0.6105593999964185,178.52970150001056,179.03791929999716,,,001,kily,2022-12-31_09h19.34.502,MentalRot,2022.2.1,60.47521423150257,
0,90,y,m,90,7,11,123,5,,,,,,,,,,,179.03791929999716,179.03791929999716,179.03791929999716,179.03791929999716,179.03791929999716,m,1,0.6062836999917636,179.6631480000069,180.16986900000484,,,001,kily,2022-12-31_09h19.34.502,MentalRot,2022.2.1,60.47521423150257,
0,135,n,n,135,7,12,124,6,,,,,,,,,,,180.16986900000484,180.16986900000484,180.16986900000484,180.16986900000484,180.16986900000484,n,1,0.6582692999945721,180.8463946999982,181.3475361000019,,,001,kily,2022-12-31_09h19.34.502,MentalRot,2022.2.1,60.47521423150257,
0,180,n,n,180,7,13,125,8,,,,,,,,,,,181.3475361000019,181.3475361000019,181.3475361000019,181.3475361000019,181.3475361000019,n,1,0.672383400000399,182.04635810000764,182.55310960000497,,,001,kily,2022-12-31_09h19.34.502,MentalRot,2022.2.1,60.47521423150257,
0,225,n,n,225,7,14,126,10,,,,,,,,,,,182.55310960000497,182.55310960000497,182.55310960000497,182.55310960000497,182.55310960000497,n,1,0.8426686000020709,183.41338320000796,183.9227710999985,,,001,kily,2022-12-31_09h19.34.502,MentalRot,2022.2.1,60.47521423150257,
0,0,y,m,0,7,15,127,1,,,,,,,,,,,183.9227710999985,183.9227710999985,183.9227710999985,183.9227710999985,183.9227710999985,m,1,0.497031099992455,184.44617399999697,184.95422650000546,,,001,kily,2022-12-31_09h19.34.502,MentalRot,2022.2.1,60.47521423150257,
0,225,y,m,225,8,0,128,11,,,,,,,,,,,184.95422650000546,184.95422650000546,184.95422650000546,184.95422650000546,184.95422650000546,m,1,0.5304208000015933,185.512853799999,186.01379740000993,,,001,kily,2022-12-31_09h19.34.502,MentalRot,2022.2.1,60.47521423150257,
0,0,y,m,0,8,1,129,1,,,,,,,,,,,186.01379740000993,186.01379740000993,186.01379740000993,186.01379740000993,186.01379740000993,m,1,0.53420370000822,186.57946380000794,187.0855719000101,,,001,kily,2022-12-31_09h19.34.502,MentalRot,2022.2.1,60.47521423150257,
0,180,n,n,180,8,2,130,8,,,,,,,,,,,187.0855719000101,187.0855719000101,187.0855719000101,187.0855719000101,187.0855719000101,n,1,0.5904622999951243,187.69627110000874,188.2035590000014,,,001,kily,2022-12-31_09h19.34.502,MentalRot,2022.2.1,60.47521423150257,
0,180,y,m,180,8,3,131,9,,,,,,,,,,,188.2035590000014,188.2035590000014,188.2035590000014,188.2035590000014,188.2035590000014,m,1,0.6082710999908159,188.82930990000023,189.3380210000032,,,001,kily,2022-12-31_09h19.34.502,MentalRot,2022.2.1,60.47521423150257,
0,270,y,m,270,8,4,132,13,,,,,,,,,,,189.3380210000032,189.3380210000032,189.3380210000032,189.3380210000032,189.3380210000032,m,1,0.5537965999974404,189.91249299999618,190.42569850001018,,,001,kily,2022-12-31_09h19.34.502,MentalRot,2022.2.1,60.47521423150257,
0,0,n,n,0,8,5,133,0,,,,,,,,,,,190.42569850001018,190.42569850001018,190.42569850001018,190.42569850001018,190.42569850001018,n,1,0.6583916999952635,191.1125577000057,191.62303919999977,,,001,kily,2022-12-31_09h19.34.502,MentalRot,2022.2.1,60.47521423150257,
0,225,n,n,225,8,6,134,10,,,,,,,,,,,191.62303919999977,191.62303919999977,191.62303919999977,191.62303919999977,191.62303919999977,n,1,0.6364098999911221,192.27921010000864,192.7880024000042,,,001,kily,2022-12-31_09h19.34.502,MentalRot,2022.2.1,60.47521423150257,
0,45,n,n,45,8,7,135,2,,,,,,,,,,,192.7880024000042,192.7880024000042,192.7880024000042,192.7880024000042,192.7880024000042,n,1,0.44757920000120066,193.26250560001063,193.76728379999986,,,001,kily,2022-12-31_09h19.34.502,MentalRot,2022.2.1,60.47521423150257,
0,135,y,m,135,8,8,136,7,,,,,,,,,,,193.76728379999986,193.76728379999986,193.76728379999986,193.76728379999986,193.76728379999986,n,0,0.46081529998627957,194.24575889999687,194.75119170000835,,,001,kily,2022-12-31_09h19.34.502,MentalRot,2022.2.1,60.47521423150257,
0,315,n,n,315,8,9,137,14,,,,,,,,,,,194.75119170000835,194.75119170000835,194.75119170000835,194.75119170000835,194.75119170000835,n,1,0.47696949999954086,195.24567689999822,195.75130440000794,,,001,kily,2022-12-31_09h19.34.502,MentalRot,2022.2.1,60.47521423150257,
0,135,n,n,135,8,10,138,6,,,,,,,,,,,195.75130440000794,195.75130440000794,195.75130440000794,195.75130440000794,195.75130440000794,n,1,0.5488486999965971,196.3291137000051,196.838622700001,,,001,kily,2022-12-31_09h19.34.502,MentalRot,2022.2.1,60.47521423150257,
0,90,n,n,90,8,11,139,4,,,,,,,,,,,196.838622700001,196.838622700001,196.838622700001,196.838622700001,196.838622700001,n,1,0.4932998000003863,197.36233319999883,197.86931780001032,,,001,kily,2022-12-31_09h19.34.502,MentalRot,2022.2.1,60.47521423150257,
0,315,y,m,315,8,12,140,15,,,,,,,,,,,197.86931780001032,197.86931780001032,197.86931780001032,197.86931780001032,197.86931780001032,m,1,0.4703210999869043,198.36278300000413,198.86350540000421,,,001,kily,2022-12-31_09h19.34.502,MentalRot,2022.2.1,60.47521423150257,
0,45,y,m,45,8,13,141,3,,,,,,,,,,,198.86350540000421,198.86350540000421,198.86350540000421,198.86350540000421,198.86350540000421,m,1,0.5015332999901148,199.39583850000054,199.90372800000478,,,001,kily,2022-12-31_09h19.34.502,MentalRot,2022.2.1,60.47521423150257,
0,270,n,n,270,8,14,142,12,,,,,,,,,,,199.90372800000478,199.90372800000478,199.90372800000478,199.90372800000478,199.90372800000478,n,1,0.5324166999926092,200.46304980000423,200.96655969999847,,,001,kily,2022-12-31_09h19.34.502,MentalRot,2022.2.1,60.47521423150257,
0,90,y,m,90,8,15,143,5,,,,,,,,,,,200.96655969999847,200.96655969999847,200.96655969999847,200.96655969999847,200.96655969999847,m,1,0.5416527999914251,201.52932100000908,202.03683720000845,,,001,kily,2022-12-31_09h19.34.502,MentalRot,2022.2.1,60.47521423150257,
0,225,n,n,225,9,0,144,10,,,,,,,,,,,202.03683720000845,202.03683720000845,202.03683720000845,202.03683720000845,202.03683720000845,n,1,0.398984899991774,202.46205490001012,202.96665260000736,,,001,kily,2022-12-31_09h19.34.502,MentalRot,2022.2.1,60.47521423150257,
0,180,y,m,180,9,1,145,9,,,,,,,,,,,202.96665260000736,202.96665260000736,202.96665260000736,202.96665260000736,202.96665260000736,m,1,0.5979882000101497,203.59602930000983,204.09591889999865,,,001,kily,2022-12-31_09h19.34.502,MentalRot,2022.2.1,60.47521423150257,
0,315,y,m,315,9,2,146,15,,,,,,,,,,,204.09591889999865,204.09591889999865,204.09591889999865,204.09591889999865,204.09591889999865,m,1,0.5559452000015881,204.67895240000507,205.1858227000048,,,001,kily,2022-12-31_09h19.34.502,MentalRot,2022.2.1,60.47521423150257,
0,315,n,n,315,9,3,147,14,,,,,,,,,,,205.1858227000048,205.1858227000048,205.1858227000048,205.1858227000048,205.1858227000048,n,1,0.49838930000260007,205.71224300000176,206.2129633000004,,,001,kily,2022-12-31_09h19.34.502,MentalRot,2022.2.1,60.47521423150257,
0,90,n,n,90,9,4,148,4,,,,,,,,,,,206.2129633000004,206.2129633000004,206.2129633000004,206.2129633000004,206.2129633000004,n,1,0.6072312999895075,206.84588229999645,207.34624600000097,,,001,kily,2022-12-31_09h19.34.502,MentalRot,2022.2.1,60.47521423150257,
0,270,n,n,270,9,5,149,12,,,,,,,,,,,207.34624600000097,207.34624600000097,207.34624600000097,207.34624600000097,207.34624600000097,n,1,0.5379345999972429,207.9123385999992,208.41350809999858,,,001,kily,2022-12-31_09h19.34.502,MentalRot,2022.2.1,60.47521423150257,
0,45,n,n,45,9,6,150,2,,,,,,,,,,,208.41350809999858,208.41350809999858,208.41350809999858,208.41350809999858,208.41350809999858,n,1,0.44652620000124443,208.87832190000336,209.38506620000408,,,001,kily,2022-12-31_09h19.34.502,MentalRot,2022.2.1,60.47521423150257,
0,180,n,n,180,9,7,151,8,,,,,,,,,,,209.38506620000408,209.38506620000408,209.38506620000408,209.38506620000408,209.38506620000408,n,1,0.6267626999906497,210.02862460000324,210.52923890000966,,,001,kily,2022-12-31_09h19.34.502,MentalRot,2022.2.1,60.47521423150257,
0,270,y,m,270,9,8,152,13,,,,,,,,,,,210.52923890000966,210.52923890000966,210.52923890000966,210.52923890000966,210.52923890000966,m,1,0.3863729000004241,210.94503070000792,211.45467479999934,,,001,kily,2022-12-31_09h19.34.502,MentalRot,2022.2.1,60.47521423150257,
0,45,y,m,45,9,9,153,3,,,,,,,,,,,211.45467479999934,211.45467479999934,211.45467479999934,211.45467479999934,211.45467479999934,n,0,0.42132749999291264,211.8955036999978,212.40087350000977,,,001,kily,2022-12-31_09h19.34.502,MentalRot,2022.2.1,60.47521423150257,
0,135,n,n,135,9,10,154,6,,,,,,,,,,,212.40087350000977,212.40087350000977,212.40087350000977,212.40087350000977,212.40087350000977,n,1,0.6427210999972885,213.06159340000886,213.56258540001,,,001,kily,2022-12-31_09h19.34.502,MentalRot,2022.2.1,60.47521423150257,
0,0,n,n,0,9,11,155,0,,,,,,,,,,,213.56258540001,213.56258540001,213.56258540001,213.56258540001,213.56258540001,n,1,0.4897501999948872,214.0785881000047,214.57932400000573,,,001,kily,2022-12-31_09h19.34.502,MentalRot,2022.2.1,60.47521423150257,
0,225,y,m,225,9,12,156,11,,,,,,,,,,,214.57932400000573,214.57932400000573,214.57932400000573,214.57932400000573,214.57932400000573,m,1,0.5846834999974817,215.19488219999766,215.70052680000663,,,001,kily,2022-12-31_09h19.34.502,MentalRot,2022.2.1,60.47521423150257,
0,90,y,m,90,9,13,157,5,,,,,,,,,,,215.70052680000663,215.70052680000663,215.70052680000663,215.70052680000663,215.70052680000663,m,1,0.7278962999989744,216.4447080999962,216.9506238000031,,,001,kily,2022-12-31_09h19.34.502,MentalRot,2022.2.1,60.47521423150257,
0,135,y,m,135,9,14,158,7,,,,,,,,,,,216.9506238000031,216.9506238000031,216.9506238000031,216.9506238000031,216.9506238000031,m,1,0.5652502000011737,217.54470880000736,218.04559629999858,,,001,kily,2022-12-31_09h19.34.502,MentalRot,2022.2.1,60.47521423150257,
0,0,y,m,0,9,15,159,1,,,,,,,,,,,218.04559629999858,218.04559629999858,218.04559629999858,218.04559629999858,218.04559629999858,m,1,0.6067156000062823,218.67791969999962,219.1780282999971,,,001,kily,2022-12-31_09h19.34.502,MentalRot,2022.2.1,60.47521423150257,
,,,,,,,,,,,,,,,,,,,,,,,,,,,,,219.1780282999971,219.1780282999971,,,,,,,
