target_number,condition,blocks.thisRepN,blocks.thisTrialN,blocks.thisN,blocks.thisIndex,trials.thisRepN,trials.thisTrialN,trials.thisN,trials.thisIndex,thisRow.t,notes,welcome.started,welcome_msg.started,welcome_resp.started,welcome.stopped,instruction.started,instr_msg.started,instr_resp.started,instruction.stopped,trial.started,alternatives.started,left_alt.started,right_alt.started,number.started,key_resp.started,trial.stopped,left_msg,right_msg,button_condition,corr,key_resp.keys,key_resp.corr,key_resp.rt,key_resp.duration,rest.started,rest_prompt.started,rest_clock.started,rest_resp.started,rest.stopped,Nome Completo,total_blocks,date,expName,psychopyVersion,frameRate,expStart,
,,,,,,,,,,,,0.002109199995175004,0.028969099977985024,0.028969099977985024,0.8189058999996632,,,,,,,,,,,,,,,,,,,,,,,,,Relâmpago Marquin,10,2024-11-05_14h07.10.889,two-digit-number-comparison-task,2024.1.5,None,2024-11-05 14h07.21.816944 -0300,
22,lower,0,0,0,0,0,0,0,11,2.5033138000871986,,,,,,0.82086560013704,0.8494772999547422,0.8494772999547422,2.42696850001812,2.439839200116694,2.5033138000871986,2.5033138000871986,2.5033138000871986,4.442158200079575,4.442158200079575,4.926826599985361,Menor que 55,Maior que 55,left-lower/right-greater,left,left,1,0.4703772000502795,None,,,,,,Relâmpago Marquin,10,2024-11-05_14h07.10.889,two-digit-number-comparison-task,2024.1.5,None,2024-11-05 14h07.21.816944 -0300,
99,greater,0,0,0,0,0,1,1,87,4.9422079001087695,,,,,,,,,,4.929290400119498,4.9422079001087695,4.9422079001087695,4.9422079001087695,6.942387300077826,6.942387300077826,7.409967600135133,Menor que 55,Maior que 55,left-lower/right-greater,right,right,1,0.4503901000134647,None,,,,,,Relâmpago Marquin,10,2024-11-05_14h07.10.889,two-digit-number-comparison-task,2024.1.5,None,2024-11-05 14h07.21.816944 -0300,
73,greater,0,0,0,0,0,2,2,61,7.425406299997121,,,,,,,,,,7.410504499915987,7.425406299997121,7.425406299997121,7.425406299997121,9.425676800077781,9.425676800077781,9.92692600004375,Menor que 55,Maior que 55,left-lower/right-greater,right,right,1,0.4868658999912441,None,,,,,,Relâmpago Marquin,10,2024-11-05_14h07.10.889,two-digit-number-comparison-task,2024.1.5,None,2024-11-05 14h07.21.816944 -0300,
25,lower,0,0,0,0,0,3,3,14,9.942358599975705,,,,,,,,,,9.927344199968502,9.942358599975705,9.942358599975705,9.942358599975705,11.942210600012913,11.942210600012913,12.343035199912265,Menor que 55,Maior que 55,left-lower/right-greater,left,left,1,0.386735400184989,None,,,,,,Relâmpago Marquin,10,2024-11-05_14h07.10.889,two-digit-number-comparison-task,2024.1.5,None,2024-11-05 14h07.21.816944 -0300,
21,lower,0,0,0,0,0,4,4,10,12.358792399987578,,,,,,,,,,12.343448699917644,12.358792399987578,12.358792399987578,12.358792399987578,14.358991499990225,14.358991499990225,14.743382800137624,Menor que 55,Maior que 55,left-lower/right-greater,left,left,1,0.3772284002043307,None,,,,,,Relâmpago Marquin,10,2024-11-05_14h07.10.889,two-digit-number-comparison-task,2024.1.5,None,2024-11-05 14h07.21.816944 -0300,
91,greater,0,0,0,0,0,5,5,79,14.758838500129059,,,,,,,,,,14.743841000134125,14.758838500129059,14.758838500129059,14.758838500129059,16.75874439999461,16.75874439999461,17.193108400097117,Menor que 55,Maior que 55,left-lower/right-greater,right,right,1,0.41812240006402135,None,,,,,,Relâmpago Marquin,10,2024-11-05_14h07.10.889,two-digit-number-comparison-task,2024.1.5,None,2024-11-05 14h07.21.816944 -0300,
38,lower,0,0,0,0,0,6,6,27,17.20863529993221,,,,,,,,,,17.193735300097615,17.20863529993221,17.20863529993221,17.20863529993221,19.208653500070795,19.208653500070795,19.609370300080627,Menor que 55,Maior que 55,left-lower/right-greater,left,left,1,0.3840549001470208,None,,,,,,Relâmpago Marquin,10,2024-11-05_14h07.10.889,two-digit-number-comparison-task,2024.1.5,None,2024-11-05 14h07.21.816944 -0300,
59,greater,0,0,0,0,0,7,7,47,19.625050999922678,,,,,,,,,,19.609989100135863,19.625050999922678,19.625050999922678,19.625050999922678,21.62507629999891,21.62507629999891,22.0595772000961,Menor que 55,Maior que 55,left-lower/right-greater,right,right,1,0.4316801999229938,None,,,,,,Relâmpago Marquin,10,2024-11-05_14h07.10.889,two-digit-number-comparison-task,2024.1.5,None,2024-11-05 14h07.21.816944 -0300,
68,greater,0,0,0,0,0,8,8,56,22.07487850007601,,,,,,,,,,22.06002190010622,22.07487850007601,22.07487850007601,22.07487850007601,24.075089399935678,24.075089399935678,24.509342200122774,Menor que 55,Maior que 55,left-lower/right-greater,right,right,1,0.42141139996238053,None,,,,,,Relâmpago Marquin,10,2024-11-05_14h07.10.889,two-digit-number-comparison-task,2024.1.5,None,2024-11-05 14h07.21.816944 -0300,
98,greater,0,0,0,0,0,9,9,86,24.524895099923015,,,,,,,,,,24.509768099989742,24.524895099923015,24.524895099923015,24.524895099923015,26.524933899985626,26.524933899985626,26.959957899991423,Menor que 55,Maior que 55,left-lower/right-greater,right,right,1,0.42862999998033047,None,,,,,,Relâmpago Marquin,10,2024-11-05_14h07.10.889,two-digit-number-comparison-task,2024.1.5,None,2024-11-05 14h07.21.816944 -0300,
11,lower,0,0,0,0,0,10,10,0,26.97537330002524,,,,,,,,,,26.960854300064966,26.97537330002524,26.97537330002524,26.97537330002524,28.974856399931014,28.974856399931014,29.392695399932563,Menor que 55,Maior que 55,left-lower/right-greater,left,left,1,0.40987939992919564,None,,,,,,Relâmpago Marquin,10,2024-11-05_14h07.10.889,two-digit-number-comparison-task,2024.1.5,None,2024-11-05 14h07.21.816944 -0300,
24,lower,0,0,0,0,0,11,11,13,29.40792019991204,,,,,,,,,,29.393229400040582,29.40792019991204,29.40792019991204,29.40792019991204,31.407989900093526,31.407989900093526,31.892375899944454,Menor que 55,Maior que 55,left-lower/right-greater,left,left,1,0.4745130999945104,None,,,,,,Relâmpago Marquin,10,2024-11-05_14h07.10.889,two-digit-number-comparison-task,2024.1.5,None,2024-11-05 14h07.21.816944 -0300,
80,greater,0,0,0,0,0,12,12,68,31.908077799947932,,,,,,,,,,31.89279370009899,31.908077799947932,31.908077799947932,31.908077799947932,33.90820339997299,33.90820339997299,34.34223990002647,Menor que 55,Maior que 55,left-lower/right-greater,right,right,1,0.4211332998238504,None,,,,,,Relâmpago Marquin,10,2024-11-05_14h07.10.889,two-digit-number-comparison-task,2024.1.5,None,2024-11-05 14h07.21.816944 -0300,
75,greater,0,0,0,0,0,13,13,63,34.3580074000638,,,,,,,,,,34.34267950011417,34.3580074000638,34.3580074000638,34.3580074000638,36.35779080004431,36.35779080004431,36.79219559999183,Menor que 55,Maior que 55,left-lower/right-greater,right,right,1,0.42637460003606975,None,,,,,,Relâmpago Marquin,10,2024-11-05_14h07.10.889,two-digit-number-comparison-task,2024.1.5,None,2024-11-05 14h07.21.816944 -0300,
14,lower,0,0,0,0,0,14,14,3,36.80762999993749,,,,,,,,,,36.792618999956176,36.80762999993749,36.80762999993749,36.80762999993749,38.80768990004435,38.80768990004435,39.25896120001562,Menor que 55,Maior que 55,left-lower/right-greater,left,left,1,0.45000809989869595,None,,,,,,Relâmpago Marquin,10,2024-11-05_14h07.10.889,two-digit-number-comparison-task,2024.1.5,None,2024-11-05 14h07.21.816944 -0300,
89,greater,0,0,0,0,0,15,15,77,39.274139600107446,,,,,,,,,,39.2593813999556,39.274139600107446,39.274139600107446,39.274139600107446,41.274044800084084,41.274044800084084,41.724868200020865,Menor que 55,Maior que 55,left-lower/right-greater,right,right,1,0.44730330002494156,None,,,,,,Relâmpago Marquin,10,2024-11-05_14h07.10.889,two-digit-number-comparison-task,2024.1.5,None,2024-11-05 14h07.21.816944 -0300,
40,lower,0,0,0,0,0,16,16,29,41.74075140012428,,,,,,,,,,41.725361000048,41.74075140012428,41.74075140012428,41.74075140012428,43.74084100010805,43.74084100010805,44.30835300008766,Menor que 55,Maior que 55,left-lower/right-greater,left,left,1,0.5570624000392854,None,,,,,,Relâmpago Marquin,10,2024-11-05_14h07.10.889,two-digit-number-comparison-task,2024.1.5,None,2024-11-05 14h07.21.816944 -0300,
77,greater,0,0,0,0,0,17,17,65,44.32414190005511,,,,,,,,,,44.308805600041524,44.32414190005511,44.32414190005511,44.32414190005511,46.32403580006212,46.32403580006212,46.79153040004894,Menor que 55,Maior que 55,left-lower/right-greater,right,right,1,0.460567899979651,None,,,,,,Relâmpago Marquin,10,2024-11-05_14h07.10.889,two-digit-number-comparison-task,2024.1.5,None,2024-11-05 14h07.21.816944 -0300,
16,lower,0,0,0,0,0,18,18,5,46.807318000122905,,,,,,,,,,46.79193750000559,46.807318000122905,46.807318000122905,46.807318000122905,48.807193600106984,48.807193600106984,49.25832020002417,Menor que 55,Maior que 55,left-lower/right-greater,left,left,1,0.44227919983677566,None,,,,,,Relâmpago Marquin,10,2024-11-05_14h07.10.889,two-digit-number-comparison-task,2024.1.5,None,2024-11-05 14h07.21.816944 -0300,
81,greater,0,0,0,0,0,19,19,69,49.274200699990615,,,,,,,,,,49.25877900002524,49.274200699990615,49.274200699990615,49.274200699990615,51.27362879994325,51.27362879994325,51.77513920003548,Menor que 55,Maior que 55,left-lower/right-greater,right,right,1,0.4881736000534147,None,,,,,,Relâmpago Marquin,10,2024-11-05_14h07.10.889,two-digit-number-comparison-task,2024.1.5,None,2024-11-05 14h07.21.816944 -0300,
15,lower,0,0,0,0,0,20,20,4,51.79032459994778,,,,,,,,,,51.77555170003325,51.79032459994778,51.79032459994778,51.79032459994778,53.79076210013591,53.79076210013591,54.224697900004685,Menor que 55,Maior que 55,left-lower/right-greater,left,left,1,0.4263584001455456,None,,,,,,Relâmpago Marquin,10,2024-11-05_14h07.10.889,two-digit-number-comparison-task,2024.1.5,None,2024-11-05 14h07.21.816944 -0300,
26,lower,0,0,0,0,0,21,21,15,54.24031800008379,,,,,,,,,,54.225104599958286,54.24031800008379,54.24031800008379,54.24031800008379,56.240195099962875,56.240195099962875,56.77451690007001,Menor que 55,Maior que 55,left-lower/right-greater,left,left,1,0.5286552000325173,None,,,,,,Relâmpago Marquin,10,2024-11-05_14h07.10.889,two-digit-number-comparison-task,2024.1.5,None,2024-11-05 14h07.21.816944 -0300,
76,greater,0,0,0,0,0,22,22,64,56.78992430004291,,,,,,,,,,56.7750415999908,56.78992430004291,56.78992430004291,56.78992430004291,58.79014399996959,58.79014399996959,59.174411199986935,Menor que 55,Maior que 55,left-lower/right-greater,right,right,1,0.37124760006554425,None,,,,,,Relâmpago Marquin,10,2024-11-05_14h07.10.889,two-digit-number-comparison-task,2024.1.5,None,2024-11-05 14h07.21.816944 -0300,
27,lower,0,0,0,0,0,23,23,16,59.18994150008075,,,,,,,,,,59.1748263000045,59.18994150008075,59.18994150008075,59.18994150008075,61.18995589995757,61.18995589995757,61.59091240004636,Menor que 55,Maior que 55,left-lower/right-greater,left,left,1,0.39462530007585883,None,,,,,,Relâmpago Marquin,10,2024-11-05_14h07.10.889,two-digit-number-comparison-task,2024.1.5,None,2024-11-05 14h07.21.816944 -0300,
56,greater,0,0,0,0,0,24,24,44,61.606582700042054,,,,,,,,,,61.591337100137025,61.606582700042054,61.606582700042054,61.606582700042054,63.6065011001192,63.6065011001192,64.04062830004841,Menor que 55,Maior que 55,left-lower/right-greater,right,right,1,0.42614210001192987,None,,,,,,Relâmpago Marquin,10,2024-11-05_14h07.10.889,two-digit-number-comparison-task,2024.1.5,None,2024-11-05 14h07.21.816944 -0300,
39,lower,0,0,0,0,0,25,25,28,64.05651060002856,,,,,,,,,,64.04105919995345,64.05651060002856,64.05651060002856,64.05651060002856,66.05623390013352,66.05623390013352,66.52396890008822,Menor que 55,Maior que 55,left-lower/right-greater,left,left,1,0.45629619993269444,None,,,,,,Relâmpago Marquin,10,2024-11-05_14h07.10.889,two-digit-number-comparison-task,2024.1.5,None,2024-11-05 14h07.21.816944 -0300,
66,greater,0,0,0,0,0,26,26,54,66.53951769997366,,,,,,,,,,66.52438810002059,66.53951769997366,66.53951769997366,66.53951769997366,68.53951129992492,68.53951129992492,69.10737350001,Menor que 55,Maior que 55,left-lower/right-greater,right,right,1,0.5571045998949558,None,,,,,,Relâmpago Marquin,10,2024-11-05_14h07.10.889,two-digit-number-comparison-task,2024.1.5,None,2024-11-05 14h07.21.816944 -0300,
95,greater,0,0,0,0,0,27,27,83,69.12301809992641,,,,,,,,,,69.10778770013712,69.12301809992641,69.12301809992641,69.12301809992641,71.12306690006517,71.12306690006517,71.57364690001123,Menor que 55,Maior que 55,left-lower/right-greater,right,right,1,0.4375443998724222,None,,,,,,Relâmpago Marquin,10,2024-11-05_14h07.10.889,two-digit-number-comparison-task,2024.1.5,None,2024-11-05 14h07.21.816944 -0300,
78,greater,0,0,0,0,0,28,28,66,71.58930859994143,,,,,,,,,,71.57409480004571,71.58930859994143,71.58930859994143,71.58930859994143,73.5892272000201,73.5892272000201,74.05708430008963,Menor que 55,Maior que 55,left-lower/right-greater,right,right,1,0.45954720000736415,None,,,,,,Relâmpago Marquin,10,2024-11-05_14h07.10.889,two-digit-number-comparison-task,2024.1.5,None,2024-11-05 14h07.21.816944 -0300,
31,lower,0,0,0,0,0,29,29,20,74.07260830001906,,,,,,,,,,74.05752849997953,74.07260830001906,74.07260830001906,74.07260830001906,76.0724589000456,76.0724589000456,76.47426669998094,Menor que 55,Maior que 55,left-lower/right-greater,left,left,1,0.4002400999888778,None,,,,,,Relâmpago Marquin,10,2024-11-05_14h07.10.889,two-digit-number-comparison-task,2024.1.5,None,2024-11-05 14h07.21.816944 -0300,
58,greater,0,0,0,0,0,30,30,46,76.48904030001722,,,,,,,,,,76.47480290010571,76.48904030001722,76.48904030001722,76.48904030001722,78.48958409996703,78.48958409996703,78.97378519992344,Menor que 55,Maior que 55,left-lower/right-greater,right,right,1,0.4789097998291254,None,,,,,,Relâmpago Marquin,10,2024-11-05_14h07.10.889,two-digit-number-comparison-task,2024.1.5,None,2024-11-05 14h07.21.816944 -0300,
93,greater,0,0,0,0,0,31,31,81,78.98893880005926,,,,,,,,,,78.97422330011614,78.98893880005926,78.98893880005926,78.98893880005926,80.98902050009929,80.98902050009929,81.50675350008532,Menor que 55,Maior que 55,left-lower/right-greater,right,right,1,0.5072852000594139,None,,,,,,Relâmpago Marquin,10,2024-11-05_14h07.10.889,two-digit-number-comparison-task,2024.1.5,None,2024-11-05 14h07.21.816944 -0300,
90,greater,0,0,0,0,0,32,32,78,81.52233990002424,,,,,,,,,,81.50718390010297,81.52233990002424,81.52233990002424,81.52233990002424,83.5221537000034,83.5221537000034,83.93978579994291,Menor que 55,Maior que 55,left-lower/right-greater,right,right,1,0.40644560009241104,None,,,,,,Relâmpago Marquin,10,2024-11-05_14h07.10.889,two-digit-number-comparison-task,2024.1.5,None,2024-11-05 14h07.21.816944 -0300,
30,lower,0,0,0,0,0,33,33,19,83.95549029996619,,,,,,,,,,83.94020180008374,83.95549029996619,83.95549029996619,83.95549029996619,85.95536800008267,85.95536800008267,86.43982550012879,Menor que 55,Maior que 55,left-lower/right-greater,left,left,1,0.46908009983599186,None,,,,,,Relâmpago Marquin,10,2024-11-05_14h07.10.889,two-digit-number-comparison-task,2024.1.5,None,2024-11-05 14h07.21.816944 -0300,
33,lower,0,0,0,0,0,34,34,22,86.45524529996328,,,,,,,,,,86.44026309996843,86.45524529996328,86.45524529996328,86.45524529996328,88.45526139996946,88.45526139996946,88.8728461000137,Menor que 55,Maior que 55,left-lower/right-greater,left,left,1,0.40148859983310103,None,,,,,,Relâmpago Marquin,10,2024-11-05_14h07.10.889,two-digit-number-comparison-task,2024.1.5,None,2024-11-05 14h07.21.816944 -0300,
46,lower,0,0,0,0,0,35,35,35,88.88846889999695,,,,,,,,,,88.87338540004566,88.88846889999695,88.88846889999695,88.88846889999695,90.88834289996885,90.88834289996885,91.70606090012006,Menor que 55,Maior que 55,left-lower/right-greater,left,left,1,0.8012017000000924,None,,,,,,Relâmpago Marquin,10,2024-11-05_14h07.10.889,two-digit-number-comparison-task,2024.1.5,None,2024-11-05 14h07.21.816944 -0300,
79,greater,0,0,0,0,0,36,36,67,91.72162470011972,,,,,,,,,,91.70657650008798,91.72162470011972,91.72162470011972,91.72162470011972,93.72175449994393,93.72175449994393,94.37253389996476,Menor que 55,Maior que 55,left-lower/right-greater,right,right,1,0.6466304999776185,None,,,,,,Relâmpago Marquin,10,2024-11-05_14h07.10.889,two-digit-number-comparison-task,2024.1.5,None,2024-11-05 14h07.21.816944 -0300,
43,lower,0,0,0,0,0,37,37,32,94.38839159999043,,,,,,,,,,94.37301380001009,94.38839159999043,94.38839159999043,94.38839159999043,96.3883573000785,96.3883573000785,96.78919279994443,Menor que 55,Maior que 55,left-lower/right-greater,left,left,1,0.39593550004065037,None,,,,,,Relâmpago Marquin,10,2024-11-05_14h07.10.889,two-digit-number-comparison-task,2024.1.5,None,2024-11-05 14h07.21.816944 -0300,
69,greater,0,0,0,0,0,38,38,57,96.80471200007014,,,,,,,,,,96.78991380007938,96.80471200007014,96.80471200007014,96.80471200007014,98.8045900000725,98.8045900000725,99.30560919991694,Menor que 55,Maior que 55,left-lower/right-greater,right,right,1,0.4848130000755191,None,,,,,,Relâmpago Marquin,10,2024-11-05_14h07.10.889,two-digit-number-comparison-task,2024.1.5,None,2024-11-05 14h07.21.816944 -0300,
61,greater,0,0,0,0,0,39,39,49,99.32125309994444,,,,,,,,,,99.30608070013113,99.32125309994444,99.32125309994444,99.32125309994444,101.32134220004082,101.32134220004082,101.8054400999099,Menor que 55,Maior que 55,left-lower/right-greater,right,right,1,0.47080789995379746,None,,,,,,Relâmpago Marquin,10,2024-11-05_14h07.10.889,two-digit-number-comparison-task,2024.1.5,None,2024-11-05 14h07.21.816944 -0300,
49,lower,0,0,0,0,0,40,40,38,101.82110009994358,,,,,,,,,,101.80594779993407,101.82110009994358,101.82110009994358,101.82110009994358,103.82114879996516,103.82114879996516,104.18885720008984,Menor que 55,Maior que 55,left-lower/right-greater,left,left,1,0.36362560000270605,None,,,,,,Relâmpago Marquin,10,2024-11-05_14h07.10.889,two-digit-number-comparison-task,2024.1.5,None,2024-11-05 14h07.21.816944 -0300,
86,greater,0,0,0,0,0,41,41,74,104.20447869994678,,,,,,,,,,104.1892675999552,104.20447869994678,104.20447869994678,104.20447869994678,106.2045893999748,106.2045893999748,106.68872909992933,Menor que 55,Maior que 55,left-lower/right-greater,right,right,1,0.4677925000432879,None,,,,,,Relâmpago Marquin,10,2024-11-05_14h07.10.889,two-digit-number-comparison-task,2024.1.5,None,2024-11-05 14h07.21.816944 -0300,
57,greater,0,0,0,0,0,42,42,45,106.70434110006317,,,,,,,,,,106.68954470008612,106.70434110006317,106.70434110006317,106.70434110006317,108.70457180007361,108.70457180007361,109.35516340006143,Menor que 55,Maior que 55,left-lower/right-greater,right,right,1,0.6479166001081467,None,,,,,,Relâmpago Marquin,10,2024-11-05_14h07.10.889,two-digit-number-comparison-task,2024.1.5,None,2024-11-05 14h07.21.816944 -0300,
74,greater,0,0,0,0,0,43,43,62,109.37075880006887,,,,,,,,,,109.35558660002425,109.37075880006887,109.37075880006887,109.37075880006887,111.3708379000891,111.3708379000891,111.93871590006165,Menor que 55,Maior que 55,left-lower/right-greater,right,right,1,0.5580865000374615,None,,,,,,Relâmpago Marquin,10,2024-11-05_14h07.10.889,two-digit-number-comparison-task,2024.1.5,None,2024-11-05 14h07.21.816944 -0300,
44,lower,0,0,0,0,0,44,44,33,111.95400090003386,,,,,,,,,,111.93916189996526,111.95400090003386,111.95400090003386,111.95400090003386,113.95405040006153,113.95405040006153,114.37183750001714,Menor que 55,Maior que 55,left-lower/right-greater,left,left,1,0.4084431999363005,None,,,,,,Relâmpago Marquin,10,2024-11-05_14h07.10.889,two-digit-number-comparison-task,2024.1.5,None,2024-11-05 14h07.21.816944 -0300,
41,lower,0,0,0,0,0,45,45,30,114.3872855999507,,,,,,,,,,114.37224679999053,114.3872855999507,114.3872855999507,114.3872855999507,116.38724820013158,116.38724820013158,116.88816919992678,Menor que 55,Maior que 55,left-lower/right-greater,left,left,1,0.48492150008678436,None,,,,,,Relâmpago Marquin,10,2024-11-05_14h07.10.889,two-digit-number-comparison-task,2024.1.5,None,2024-11-05 14h07.21.816944 -0300,
52,lower,0,0,0,0,0,46,46,41,116.90390889998525,,,,,,,,,,116.88875859999098,116.90390889998525,116.90390889998525,116.90390889998525,118.903925599996,118.903925599996,119.65488869999535,Menor que 55,Maior que 55,left-lower/right-greater,left,left,1,0.7442523001227528,None,,,,,,Relâmpago Marquin,10,2024-11-05_14h07.10.889,two-digit-number-comparison-task,2024.1.5,None,2024-11-05 14h07.21.816944 -0300,
71,greater,0,0,0,0,0,47,47,59,119.6704321000725,,,,,,,,,,119.65530179999769,119.6704321000725,119.6704321000725,119.6704321000725,121.67042260011658,121.67042260011658,122.12219469994307,Menor que 55,Maior que 55,left-lower/right-greater,right,right,1,0.450054100016132,None,,,,,,Relâmpago Marquin,10,2024-11-05_14h07.10.889,two-digit-number-comparison-task,2024.1.5,None,2024-11-05 14h07.21.816944 -0300,
88,greater,0,0,0,0,0,48,48,76,122.13698490010574,,,,,,,,,,122.12263970007189,122.13698490010574,122.13698490010574,122.13698490010574,124.1368933999911,124.1368933999911,124.55474009993486,Menor que 55,Maior que 55,left-lower/right-greater,right,right,1,0.4156234001275152,None,,,,,,Relâmpago Marquin,10,2024-11-05_14h07.10.889,two-digit-number-comparison-task,2024.1.5,None,2024-11-05 14h07.21.816944 -0300,
82,greater,0,0,0,0,0,49,49,70,124.57022450002842,,,,,,,,,,124.55515110003762,124.57022450002842,124.57022450002842,124.57022450002842,126.5701304001268,126.5701304001268,126.98791399993934,Menor que 55,Maior que 55,left-lower/right-greater,right,right,1,0.4151016999967396,None,,,,,,Relâmpago Marquin,10,2024-11-05_14h07.10.889,two-digit-number-comparison-task,2024.1.5,None,2024-11-05 14h07.21.816944 -0300,
32,lower,0,0,0,0,0,50,50,21,127.0033653001301,,,,,,,,,,126.98850390012376,127.0033653001301,127.0033653001301,127.0033653001301,129.00335599994287,129.00335599994287,129.40470890002325,Menor que 55,Maior que 55,left-lower/right-greater,left,left,1,0.3897096998989582,None,,,,,,Relâmpago Marquin,10,2024-11-05_14h07.10.889,two-digit-number-comparison-task,2024.1.5,None,2024-11-05 14h07.21.816944 -0300,
47,lower,0,0,0,0,0,51,51,36,129.4198064999655,,,,,,,,,,129.40544190001674,129.4198064999655,129.4198064999655,129.4198064999655,131.41990890004672,131.41990890004672,131.98754030000418,Menor que 55,Maior que 55,left-lower/right-greater,left,left,1,0.5643236001487821,None,,,,,,Relâmpago Marquin,10,2024-11-05_14h07.10.889,two-digit-number-comparison-task,2024.1.5,None,2024-11-05 14h07.21.816944 -0300,
20,lower,0,0,0,0,0,52,52,9,132.00318060000427,,,,,,,,,,131.98795540002175,132.00318060000427,132.00318060000427,132.00318060000427,134.0031006000936,134.0031006000936,134.40403490001336,Menor que 55,Maior que 55,left-lower/right-greater,left,left,1,0.39761450001969934,None,,,,,,Relâmpago Marquin,10,2024-11-05_14h07.10.889,two-digit-number-comparison-task,2024.1.5,None,2024-11-05 14h07.21.816944 -0300,
35,lower,0,0,0,0,0,53,53,24,134.4195475000888,,,,,,,,,,134.40451480005868,134.4195475000888,134.4195475000888,134.4195475000888,136.41981130000204,136.41981130000204,136.8541882999707,Menor que 55,Maior que 55,left-lower/right-greater,left,left,1,0.4206097999121994,None,,,,,,Relâmpago Marquin,10,2024-11-05_14h07.10.889,two-digit-number-comparison-task,2024.1.5,None,2024-11-05 14h07.21.816944 -0300,
12,lower,0,0,0,0,0,54,54,1,136.86991539993323,,,,,,,,,,136.85463519999757,136.86991539993323,136.86991539993323,136.86991539993323,138.8695831000805,138.8695831000805,139.33733060001396,Menor que 55,Maior que 55,left-lower/right-greater,left,left,1,0.45957259996794164,None,,,,,,Relâmpago Marquin,10,2024-11-05_14h07.10.889,two-digit-number-comparison-task,2024.1.5,None,2024-11-05 14h07.21.816944 -0300,
45,lower,0,0,0,0,0,55,55,34,139.35281049995683,,,,,,,,,,139.33774450002238,139.35281049995683,139.35281049995683,139.35281049995683,141.3532918000128,141.3532918000128,141.93725770013407,Menor que 55,Maior que 55,left-lower/right-greater,left,left,1,0.567378900013864,None,,,,,,Relâmpago Marquin,10,2024-11-05_14h07.10.889,two-digit-number-comparison-task,2024.1.5,None,2024-11-05 14h07.21.816944 -0300,
13,lower,0,0,0,0,0,56,56,2,141.95275119994767,,,,,,,,,,141.93774050008506,141.95275119994767,141.95275119994767,141.95275119994767,143.95263740001246,143.95263740001246,144.37043639994226,Menor que 55,Maior que 55,left-lower/right-greater,left,left,1,0.4077460002154112,None,,,,,,Relâmpago Marquin,10,2024-11-05_14h07.10.889,two-digit-number-comparison-task,2024.1.5,None,2024-11-05 14h07.21.816944 -0300,
54,lower,0,0,0,0,0,57,57,43,144.3859147001058,,,,,,,,,,144.37089930009097,144.3859147001058,144.3859147001058,144.3859147001058,146.38578690006398,146.38578690006398,147.13649539998733,Menor que 55,Maior que 55,left-lower/right-greater,left,left,1,0.7425806999672204,None,,,,,,Relâmpago Marquin,10,2024-11-05_14h07.10.889,two-digit-number-comparison-task,2024.1.5,None,2024-11-05 14h07.21.816944 -0300,
62,greater,0,0,0,0,0,58,58,50,147.152340099914,,,,,,,,,,147.1371436000336,147.152340099914,147.152340099914,147.152340099914,149.15235799993388,149.15235799993388,149.73672219994478,Menor que 55,Maior que 55,left-lower/right-greater,right,right,1,0.576333099976182,None,,,,,,Relâmpago Marquin,10,2024-11-05_14h07.10.889,two-digit-number-comparison-task,2024.1.5,None,2024-11-05 14h07.21.816944 -0300,
84,greater,0,0,0,0,0,59,59,72,149.75226550013758,,,,,,,,,,149.7371461999137,149.75226550013758,149.75226550013758,149.75226550013758,151.75219390005805,151.75219390005805,152.2699724000413,Menor que 55,Maior que 55,left-lower/right-greater,right,right,1,0.5043889000080526,None,,,,,,Relâmpago Marquin,10,2024-11-05_14h07.10.889,two-digit-number-comparison-task,2024.1.5,None,2024-11-05 14h07.21.816944 -0300,
70,greater,0,0,0,0,0,60,60,58,152.28563769999892,,,,,,,,,,152.2704205000773,152.28563769999892,152.28563769999892,152.28563769999892,154.28519760002382,154.28519760002382,154.8365710999351,Menor que 55,Maior que 55,left-lower/right-greater,right,right,1,0.5471282000653446,None,,,,,,Relâmpago Marquin,10,2024-11-05_14h07.10.889,two-digit-number-comparison-task,2024.1.5,None,2024-11-05 14h07.21.816944 -0300,
51,lower,0,0,0,0,0,61,61,40,154.85216329991817,,,,,,,,,,154.83710010000505,154.85216329991817,154.85216329991817,154.85216329991817,156.851476599928,156.851476599928,157.55259949993342,Menor que 55,Maior que 55,left-lower/right-greater,left,left,1,0.692819399992004,None,,,,,,Relâmpago Marquin,10,2024-11-05_14h07.10.889,two-digit-number-comparison-task,2024.1.5,None,2024-11-05 14h07.21.816944 -0300,
92,greater,0,0,0,0,0,62,62,80,157.56812619999982,,,,,,,,,,157.55319379991852,157.56812619999982,157.56812619999982,157.56812619999982,159.56827619997784,159.56827619997784,160.0857420999091,Menor que 55,Maior que 55,left-lower/right-greater,right,right,1,0.511986100114882,None,,,,,,Relâmpago Marquin,10,2024-11-05_14h07.10.889,two-digit-number-comparison-task,2024.1.5,None,2024-11-05 14h07.21.816944 -0300,
34,lower,0,0,0,0,0,63,63,23,160.1014183999505,,,,,,,,,,160.08619430009276,160.1014183999505,160.1014183999505,160.1014183999505,162.1012673000805,162.1012673000805,162.56933910003863,Menor que 55,Maior que 55,left-lower/right-greater,left,left,1,0.45893940003588796,None,,,,,,Relâmpago Marquin,10,2024-11-05_14h07.10.889,two-digit-number-comparison-task,2024.1.5,None,2024-11-05 14h07.21.816944 -0300,
17,lower,0,0,0,0,0,64,64,6,162.58442110009491,,,,,,,,,,162.57028939994052,162.58442110009491,162.58442110009491,162.58442110009491,164.58461089991033,164.58461089991033,165.0023372999858,Menor que 55,Maior que 55,left-lower/right-greater,left,left,1,0.4080136001575738,None,,,,,,Relâmpago Marquin,10,2024-11-05_14h07.10.889,two-digit-number-comparison-task,2024.1.5,None,2024-11-05 14h07.21.816944 -0300,
37,lower,0,0,0,0,0,65,65,26,165.01769040012732,,,,,,,,,,165.00288949999958,165.01769040012732,165.01769040012732,165.01769040012732,167.01788439997472,167.01788439997472,167.50205000001006,Menor que 55,Maior que 55,left-lower/right-greater,left,left,1,0.47067410009913146,None,,,,,,Relâmpago Marquin,10,2024-11-05_14h07.10.889,two-digit-number-comparison-task,2024.1.5,None,2024-11-05 14h07.21.816944 -0300,
97,greater,0,0,0,0,0,66,66,85,167.5176999999676,,,,,,,,,,167.50262159993872,167.5176999999676,167.5176999999676,167.5176999999676,169.51761929993518,169.51761929993518,169.98555310000665,Menor que 55,Maior que 55,left-lower/right-greater,right,right,1,0.4506645000074059,None,,,,,,Relâmpago Marquin,10,2024-11-05_14h07.10.889,two-digit-number-comparison-task,2024.1.5,None,2024-11-05 14h07.21.816944 -0300,
48,lower,0,0,0,0,0,67,67,37,170.0013260000851,,,,,,,,,,169.985961999977,170.0013260000851,170.0013260000851,170.0013260000851,172.00087879993953,172.00087879993953,173.10200319997966,Menor que 55,Maior que 55,left-lower/right-greater,left,left,1,1.096228800015524,None,,,,,,Relâmpago Marquin,10,2024-11-05_14h07.10.889,two-digit-number-comparison-task,2024.1.5,None,2024-11-05 14h07.21.816944 -0300,
72,greater,0,0,0,0,0,68,68,60,173.1175275000278,,,,,,,,,,173.10241569997743,173.1175275000278,173.1175275000278,173.1175275000278,175.11730840010568,175.11730840010568,175.585835600039,Menor que 55,Maior que 55,left-lower/right-greater,right,right,1,0.4594656000845134,None,,,,,,Relâmpago Marquin,10,2024-11-05_14h07.10.889,two-digit-number-comparison-task,2024.1.5,None,2024-11-05 14h07.21.816944 -0300,
64,greater,0,0,0,0,0,69,69,52,175.60109150013886,,,,,,,,,,175.58626620005816,175.60109150013886,175.60109150013886,175.60109150013886,177.60059419996105,177.60059419996105,178.13488680007868,Menor que 55,Maior que 55,left-lower/right-greater,right,right,1,0.5285906000062823,None,,,,,,Relâmpago Marquin,10,2024-11-05_14h07.10.889,two-digit-number-comparison-task,2024.1.5,None,2024-11-05 14h07.21.816944 -0300,
85,greater,0,0,0,0,0,70,70,73,178.15059360000305,,,,,,,,,,178.13540169992484,178.15059360000305,178.15059360000305,178.15059360000305,180.1505961001385,180.1505961001385,180.56868860009126,Menor que 55,Maior que 55,left-lower/right-greater,right,right,1,0.41038940008729696,None,,,,,,Relâmpago Marquin,10,2024-11-05_14h07.10.889,two-digit-number-comparison-task,2024.1.5,None,2024-11-05 14h07.21.816944 -0300,
23,lower,0,0,0,0,0,71,71,12,180.58374619996175,,,,,,,,,,180.5693353000097,180.58374619996175,180.58374619996175,180.58374619996175,182.58367069996893,182.58367069996893,183.03461390011944,Menor que 55,Maior que 55,left-lower/right-greater,left,left,1,0.4408378000371158,None,,,,,,Relâmpago Marquin,10,2024-11-05_14h07.10.889,two-digit-number-comparison-task,2024.1.5,None,2024-11-05 14h07.21.816944 -0300,
50,lower,0,0,0,0,0,72,72,39,183.05028950003907,,,,,,,,,,183.0351176999975,183.05028950003907,183.05028950003907,183.05028950003907,185.05019270000048,185.05019270000048,185.63463300000876,Menor que 55,Maior que 55,left-lower/right-greater,left,left,1,0.5824508999940008,None,,,,,,Relâmpago Marquin,10,2024-11-05_14h07.10.889,two-digit-number-comparison-task,2024.1.5,None,2024-11-05 14h07.21.816944 -0300,
83,greater,0,0,0,0,0,73,73,71,185.65007620002143,,,,,,,,,,185.63512030011043,185.65007620002143,185.65007620002143,185.65007620002143,187.6502247999888,187.6502247999888,188.10131020005792,Menor que 55,Maior que 55,left-lower/right-greater,right,right,1,0.44643910019658506,None,,,,,,Relâmpago Marquin,10,2024-11-05_14h07.10.889,two-digit-number-comparison-task,2024.1.5,None,2024-11-05 14h07.21.816944 -0300,
96,greater,0,0,0,0,0,74,74,84,188.11683450010605,,,,,,,,,,188.10171939991415,188.11683450010605,188.11683450010605,188.11683450010605,190.11660300008953,190.11660300008953,190.55103270011023,Menor que 55,Maior que 55,left-lower/right-greater,right,right,1,0.4198213000781834,None,,,,,,Relâmpago Marquin,10,2024-11-05_14h07.10.889,two-digit-number-comparison-task,2024.1.5,None,2024-11-05 14h07.21.816944 -0300,
19,lower,0,0,0,0,0,75,75,8,190.56671479996294,,,,,,,,,,190.551484500058,190.56671479996294,190.56671479996294,190.56671479996294,192.56662370008416,192.56662370008416,193.05097869993187,Menor que 55,Maior que 55,left-lower/right-greater,left,left,1,0.47433819994330406,None,,,,,,Relâmpago Marquin,10,2024-11-05_14h07.10.889,two-digit-number-comparison-task,2024.1.5,None,2024-11-05 14h07.21.816944 -0300,
65,greater,0,0,0,0,0,76,76,53,193.06639349996112,,,,,,,,,,193.0513891999144,193.06639349996112,193.06639349996112,193.06639349996112,195.06648169993423,195.06648169993423,195.56764380005188,Menor que 55,Maior que 55,left-lower/right-greater,right,right,1,0.4943625000305474,None,,,,,,Relâmpago Marquin,10,2024-11-05_14h07.10.889,two-digit-number-comparison-task,2024.1.5,None,2024-11-05 14h07.21.816944 -0300,
29,lower,0,0,0,0,0,77,77,18,195.5833038999699,,,,,,,,,,195.56807989999652,195.5833038999699,195.5833038999699,195.5833038999699,197.58294979995117,197.58294979995117,198.11729210009798,Menor que 55,Maior que 55,left-lower/right-greater,left,left,1,0.5211781999096274,None,,,,,,Relâmpago Marquin,10,2024-11-05_14h07.10.889,two-digit-number-comparison-task,2024.1.5,None,2024-11-05 14h07.21.816944 -0300,
42,lower,0,0,0,0,0,78,78,31,198.13299710000865,,,,,,,,,,198.1177091000136,198.13299710000865,198.13299710000865,198.13299710000865,200.1327367001213,200.1327367001213,201.05051199998707,Menor que 55,Maior que 55,left-lower/right-greater,left,left,1,0.9083404999691993,None,,,,,,Relâmpago Marquin,10,2024-11-05_14h07.10.889,two-digit-number-comparison-task,2024.1.5,None,2024-11-05 14h07.21.816944 -0300,
36,lower,0,0,0,0,0,79,79,25,201.06606430001557,,,,,,,,,,201.05095580010675,201.06606430001557,201.06606430001557,201.06606430001557,203.04948500008322,203.04948500008322,203.86707639996894,Menor que 55,Maior que 55,left-lower/right-greater,left,left,1,0.8070684999693185,None,,,,,,Relâmpago Marquin,10,2024-11-05_14h07.10.889,two-digit-number-comparison-task,2024.1.5,None,2024-11-05 14h07.21.816944 -0300,
28,lower,0,0,0,0,0,80,80,17,203.88266770006157,,,,,,,,,,203.86752610001713,203.88266770006157,203.88266770006157,203.88266770006157,205.88257839996368,205.88257839996368,206.71692660008557,Menor que 55,Maior que 55,left-lower/right-greater,left,left,1,0.8295872998423874,None,,,,,,Relâmpago Marquin,10,2024-11-05_14h07.10.889,two-digit-number-comparison-task,2024.1.5,None,2024-11-05 14h07.21.816944 -0300,
53,lower,0,0,0,0,0,81,81,42,206.73244630009867,,,,,,,,,,206.71737330011092,206.73244630009867,206.73244630009867,206.73244630009867,208.73237220011652,208.73237220011652,209.4834106999915,Menor que 55,Maior que 55,left-lower/right-greater,left,left,1,0.7400871000718325,None,,,,,,Relâmpago Marquin,10,2024-11-05_14h07.10.889,two-digit-number-comparison-task,2024.1.5,None,2024-11-05 14h07.21.816944 -0300,
94,greater,0,0,0,0,0,82,82,82,209.49907450005412,,,,,,,,,,209.48384430003352,209.49907450005412,209.49907450005412,209.49907450005412,211.499159200117,211.499159200117,212.1498900000006,Menor que 55,Maior que 55,left-lower/right-greater,right,right,1,0.6366675000172108,None,,,,,,Relâmpago Marquin,10,2024-11-05_14h07.10.889,two-digit-number-comparison-task,2024.1.5,None,2024-11-05 14h07.21.816944 -0300,
60,greater,0,0,0,0,0,83,83,48,212.16555229993537,,,,,,,,,,212.15031810011715,212.16555229993537,212.16555229993537,212.16555229993537,214.16559630003758,214.16559630003758,214.93323470000178,Menor que 55,Maior que 55,left-lower/right-greater,right,right,1,0.7627926000859588,None,,,,,,Relâmpago Marquin,10,2024-11-05_14h07.10.889,two-digit-number-comparison-task,2024.1.5,None,2024-11-05 14h07.21.816944 -0300,
87,greater,0,0,0,0,0,84,84,75,214.9488516000565,,,,,,,,,,214.9337154000532,214.9488516000565,214.9488516000565,214.9488516000565,216.9485492000822,216.9485492000822,217.38320589996874,Menor que 55,Maior que 55,left-lower/right-greater,right,right,1,0.42836509994231164,None,,,,,,Relâmpago Marquin,10,2024-11-05_14h07.10.889,two-digit-number-comparison-task,2024.1.5,None,2024-11-05 14h07.21.816944 -0300,
63,greater,0,0,0,0,0,85,85,51,217.3985665999353,,,,,,,,,,217.38368150009774,217.3985665999353,217.3985665999353,217.3985665999353,219.3986621000804,219.3986621000804,219.8335567000322,Menor que 55,Maior que 55,left-lower/right-greater,right,right,1,0.43357039988040924,None,,,,,,Relâmpago Marquin,10,2024-11-05_14h07.10.889,two-digit-number-comparison-task,2024.1.5,None,2024-11-05 14h07.21.816944 -0300,
67,greater,0,0,0,0,0,86,86,55,219.84851750009693,,,,,,,,,,219.83410610002466,219.84851750009693,219.84851750009693,219.84851750009693,221.84834540006705,221.84834540006705,222.48286240012385,Menor que 55,Maior que 55,left-lower/right-greater,right,right,1,0.6241176999174058,None,,,,,,Relâmpago Marquin,10,2024-11-05_14h07.10.889,two-digit-number-comparison-task,2024.1.5,None,2024-11-05 14h07.21.816944 -0300,
18,lower,0,0,0,0,0,87,87,7,222.49837090005167,,,,,,,,,,222.48333050007932,222.49837090005167,222.49837090005167,222.49837090005167,224.49884010013193,224.49884010013193,224.88297670008615,Menor que 55,Maior que 55,left-lower/right-greater,left,left,1,0.38202060014009476,None,,,,,,Relâmpago Marquin,10,2024-11-05_14h07.10.889,two-digit-number-comparison-task,2024.1.5,None,2024-11-05 14h07.21.816944 -0300,
,,0,0,0,0,,,,,,,,,,,,,,,,,,,,,,,,,,,,,,224.88336890004575,224.91721959994175,224.91721959994175,224.91721959994175,284.9013185000513,Relâmpago Marquin,10,2024-11-05_14h07.10.889,two-digit-number-comparison-task,2024.1.5,None,2024-11-05 14h07.21.816944 -0300,
15,lower,1,0,1,0,0,0,0,4,380.0634906999767,,,,,,284.90156799997203,284.9339175000787,284.9339175000787,380.04191750008613,380.05342629994266,380.0634906999767,380.0634906999767,380.0634906999767,382.0572937000543,382.0572937000543,382.50826880009845,Menor que 55,Maior que 55,left-lower/right-greater,left,left,1,0.4385311999358237,None,,,,,,Relâmpago Marquin,10,2024-11-05_14h07.10.889,two-digit-number-comparison-task,2024.1.5,None,2024-11-05 14h07.21.816944 -0300,
24,lower,1,0,1,0,0,1,1,13,382.52384999999776,,,,,,,,,,382.5089394999668,382.52384999999776,382.52384999999776,382.52384999999776,384.52377320011146,384.52377320011146,384.99172060005367,Menor que 55,Maior que 55,left-lower/right-greater,left,left,1,0.4516002999152988,None,,,,,,Relâmpago Marquin,10,2024-11-05_14h07.10.889,two-digit-number-comparison-task,2024.1.5,None,2024-11-05 14h07.21.816944 -0300,
74,greater,1,0,1,0,0,2,2,62,385.00723830005154,,,,,,,,,,384.99221509997733,385.00723830005154,385.00723830005154,385.00723830005154,387.00710380007513,387.00710380007513,387.4915775000118,Menor que 55,Maior que 55,left-lower/right-greater,right,right,1,0.48089420003816485,None,,,,,,Relâmpago Marquin,10,2024-11-05_14h07.10.889,two-digit-number-comparison-task,2024.1.5,None,2024-11-05 14h07.21.816944 -0300,
33,lower,1,0,1,0,0,3,3,22,387.50712520000525,,,,,,,,,,387.4920719000511,387.50712520000525,387.50712520000525,387.50712520000525,389.5069454999175,389.5069454999175,389.87491760007106,Menor que 55,Maior que 55,left-lower/right-greater,left,left,1,0.365054199937731,None,,,,,,Relâmpago Marquin,10,2024-11-05_14h07.10.889,two-digit-number-comparison-task,2024.1.5,None,2024-11-05 14h07.21.816944 -0300,
87,greater,1,0,1,0,0,4,4,75,389.89022639999166,,,,,,,,,,389.87538850004785,389.89022639999166,389.89022639999166,389.89022639999166,391.89022650010884,391.89022650010884,392.258545699995,Menor que 55,Maior que 55,left-lower/right-greater,right,right,1,0.36638329993002117,None,,,,,,Relâmpago Marquin,10,2024-11-05_14h07.10.889,two-digit-number-comparison-task,2024.1.5,None,2024-11-05 14h07.21.816944 -0300,
69,greater,1,0,1,0,0,5,5,57,392.2736064000055,,,,,,,,,,392.25900020007975,392.2736064000055,392.2736064000055,392.2736064000055,394.27329039992765,394.27329039992765,394.75890140002593,Menor que 55,Maior que 55,left-lower/right-greater,right,right,1,0.4704768001101911,None,,,,,,Relâmpago Marquin,10,2024-11-05_14h07.10.889,two-digit-number-comparison-task,2024.1.5,None,2024-11-05 14h07.21.816944 -0300,
70,greater,1,0,1,0,0,6,6,58,394.7804336999543,,,,,,,,,,394.7606832999736,394.7804336999543,394.7804336999543,394.7804336999543,396.7732941999566,396.7732941999566,397.1575726000592,Menor que 55,Maior que 55,left-lower/right-greater,right,right,1,0.37056090007536113,None,,,,,,Relâmpago Marquin,10,2024-11-05_14h07.10.889,two-digit-number-comparison-task,2024.1.5,None,2024-11-05 14h07.21.816944 -0300,
76,greater,1,0,1,0,0,7,7,64,397.17326740012504,,,,,,,,,,397.1580131999217,397.17326740012504,397.17326740012504,397.17326740012504,399.1730528001208,399.1730528001208,399.67438660003245,Menor que 55,Maior que 55,left-lower/right-greater,right,right,1,0.4987372998148203,None,,,,,,Relâmpago Marquin,10,2024-11-05_14h07.10.889,two-digit-number-comparison-task,2024.1.5,None,2024-11-05 14h07.21.816944 -0300,
61,greater,1,0,1,0,0,8,8,49,399.68965200008824,,,,,,,,,,399.67511490010656,399.68965200008824,399.68965200008824,399.68965200008824,401.68969519995153,401.68969519995153,402.1074981999118,Menor que 55,Maior que 55,left-lower/right-greater,right,right,1,0.4062268000561744,None,,,,,,Relâmpago Marquin,10,2024-11-05_14h07.10.889,two-digit-number-comparison-task,2024.1.5,None,2024-11-05 14h07.21.816944 -0300,
93,greater,1,0,1,0,0,9,9,81,402.1230077999644,,,,,,,,,,402.1079305000603,402.1230077999644,402.1230077999644,402.1230077999644,404.1228513000533,404.1228513000533,404.5737930999603,Menor que 55,Maior que 55,left-lower/right-greater,right,right,1,0.4363945999648422,None,,,,,,Relâmpago Marquin,10,2024-11-05_14h07.10.889,two-digit-number-comparison-task,2024.1.5,None,2024-11-05 14h07.21.816944 -0300,
95,greater,1,0,1,0,0,10,10,83,404.5894218001049,,,,,,,,,,404.57424989994615,404.5894218001049,404.5894218001049,404.5894218001049,406.5894568001386,406.5894568001386,406.99067199998535,Menor que 55,Maior que 55,left-lower/right-greater,right,right,1,0.3865314999129623,None,,,,,,Relâmpago Marquin,10,2024-11-05_14h07.10.889,two-digit-number-comparison-task,2024.1.5,None,2024-11-05 14h07.21.816944 -0300,
22,lower,1,0,1,0,0,11,11,11,407.0060658999719,,,,,,,,,,406.9911058000289,407.0060658999719,407.0060658999719,407.0060658999719,409.00618649995886,409.00618649995886,409.40696009993553,Menor que 55,Maior que 55,left-lower/right-greater,left,left,1,0.3854199000634253,None,,,,,,Relâmpago Marquin,10,2024-11-05_14h07.10.889,two-digit-number-comparison-task,2024.1.5,None,2024-11-05 14h07.21.816944 -0300,
12,lower,1,0,1,0,0,12,12,1,409.4227008000016,,,,,,,,,,409.40739220008254,409.4227008000016,409.4227008000016,409.4227008000016,411.42273099999875,411.42273099999875,411.8736211999785,Menor que 55,Maior que 55,left-lower/right-greater,left,left,1,0.4413008999545127,None,,,,,,Relâmpago Marquin,10,2024-11-05_14h07.10.889,two-digit-number-comparison-task,2024.1.5,None,2024-11-05 14h07.21.816944 -0300,
98,greater,1,0,1,0,0,13,13,86,411.8891104001086,,,,,,,,,,411.8741371999495,411.8891104001086,411.8891104001086,411.8891104001086,413.88897749991156,413.88897749991156,414.40677660005167,Menor que 55,Maior que 55,left-lower/right-greater,right,right,1,0.5104276998899877,None,,,,,,Relâmpago Marquin,10,2024-11-05_14h07.10.889,two-digit-number-comparison-task,2024.1.5,None,2024-11-05 14h07.21.816944 -0300,
43,lower,1,0,1,0,0,14,14,32,414.4226885000244,,,,,,,,,,414.4072269999888,414.4226885000244,414.4226885000244,414.4226885000244,416.422632999951,416.422632999951,417.25680799991824,Menor que 55,Maior que 55,left-lower/right-greater,left,left,1,0.8171975999139249,None,,,,,,Relâmpago Marquin,10,2024-11-05_14h07.10.889,two-digit-number-comparison-task,2024.1.5,None,2024-11-05 14h07.21.816944 -0300,
88,greater,1,0,1,0,0,15,15,76,417.2725583999418,,,,,,,,,,417.2572431000881,417.2725583999418,417.2725583999418,417.2725583999418,419.27220529993065,419.27220529993065,419.82348489994183,Menor que 55,Maior que 55,left-lower/right-greater,right,right,1,0.5357788000255823,None,,,,,,Relâmpago Marquin,10,2024-11-05_14h07.10.889,two-digit-number-comparison-task,2024.1.5,None,2024-11-05 14h07.21.816944 -0300,
34,lower,1,0,1,0,0,16,16,23,419.83892329991795,,,,,,,,,,419.823908300139,419.83892329991795,419.83892329991795,419.83892329991795,421.8386969000567,421.8386969000567,422.40673810010776,Menor que 55,Maior que 55,left-lower/right-greater,left,left,1,0.5623214999213815,None,,,,,,Relâmpago Marquin,10,2024-11-05_14h07.10.889,two-digit-number-comparison-task,2024.1.5,None,2024-11-05 14h07.21.816944 -0300,
39,lower,1,0,1,0,0,17,17,28,422.4220592000056,,,,,,,,,,422.4075035999995,422.4220592000056,422.4220592000056,422.4220592000056,424.42195360013284,424.42195360013284,424.97338400012814,Menor que 55,Maior que 55,left-lower/right-greater,left,left,1,0.5457509998232126,None,,,,,,Relâmpago Marquin,10,2024-11-05_14h07.10.889,two-digit-number-comparison-task,2024.1.5,None,2024-11-05 14h07.21.816944 -0300,
94,greater,1,0,1,0,0,18,18,82,424.9886141999159,,,,,,,,,,424.97431580000557,424.9886141999159,424.9886141999159,424.9886141999159,426.988652799977,426.988652799977,427.43965890002437,Menor que 55,Maior que 55,left-lower/right-greater,right,right,1,0.44327619997784495,None,,,,,,Relâmpago Marquin,10,2024-11-05_14h07.10.889,two-digit-number-comparison-task,2024.1.5,None,2024-11-05 14h07.21.816944 -0300,
41,lower,1,0,1,0,0,19,19,30,427.4550580000505,,,,,,,,,,427.4402997000143,427.4550580000505,427.4550580000505,427.4550580000505,429.4552508001216,429.4552508001216,429.9061795999296,Menor que 55,Maior que 55,left-lower/right-greater,left,left,1,0.4415746999438852,None,,,,,,Relâmpago Marquin,10,2024-11-05_14h07.10.889,two-digit-number-comparison-task,2024.1.5,None,2024-11-05 14h07.21.816944 -0300,
96,greater,1,0,1,0,0,20,20,84,429.92164950002916,,,,,,,,,,429.9066638001241,429.92164950002916,429.92164950002916,429.92164950002916,431.92146999994293,431.92146999994293,432.40623999992386,Menor que 55,Maior que 55,left-lower/right-greater,right,right,1,0.4789179000072181,None,,,,,,Relâmpago Marquin,10,2024-11-05_14h07.10.889,two-digit-number-comparison-task,2024.1.5,None,2024-11-05 14h07.21.816944 -0300,
53,lower,1,0,1,0,0,21,21,42,432.42176100006327,,,,,,,,,,432.4066709000617,432.42176100006327,432.42176100006327,432.42176100006327,434.42151420004666,434.42151420004666,434.93922629998997,Menor que 55,Maior que 55,left-lower/right-greater,left,left,1,0.5057778998743743,None,,,,,,Relâmpago Marquin,10,2024-11-05_14h07.10.889,two-digit-number-comparison-task,2024.1.5,None,2024-11-05 14h07.21.816944 -0300,
91,greater,1,0,1,0,0,22,22,79,434.95473160012625,,,,,,,,,,434.93965040007606,434.95473160012625,434.95473160012625,434.95473160012625,436.9546491999645,436.9546491999645,437.42242110008374,Menor que 55,Maior que 55,left-lower/right-greater,right,right,1,0.4614413999952376,None,,,,,,Relâmpago Marquin,10,2024-11-05_14h07.10.889,two-digit-number-comparison-task,2024.1.5,None,2024-11-05 14h07.21.816944 -0300,
68,greater,1,0,1,0,0,23,23,56,437.43795439996757,,,,,,,,,,437.42293819994666,437.43795439996757,437.43795439996757,437.43795439996757,439.43803700013086,439.43803700013086,440.0557715999894,Menor que 55,Maior que 55,left-lower/right-greater,right,right,1,0.6015673000365496,None,,,,,,Relâmpago Marquin,10,2024-11-05_14h07.10.889,two-digit-number-comparison-task,2024.1.5,None,2024-11-05 14h07.21.816944 -0300,
89,greater,1,0,1,0,0,24,24,77,440.07133490010165,,,,,,,,,,440.05618620011955,440.07133490010165,440.07133490010165,440.07133490010165,442.07112680003047,442.07112680003047,442.57189500005916,Menor que 55,Maior que 55,left-lower/right-greater,right,right,1,0.48868989991024137,None,,,,,,Relâmpago Marquin,10,2024-11-05_14h07.10.889,two-digit-number-comparison-task,2024.1.5,None,2024-11-05 14h07.21.816944 -0300,
17,lower,1,0,1,0,0,25,25,6,442.58764580008574,,,,,,,,,,442.5723298001103,442.58764580008574,442.58764580008574,442.58764580008574,444.5875906001311,444.5875906001311,445.20526479999535,Menor que 55,Maior que 55,left-lower/right-greater,left,left,1,0.6121173000428826,None,,,,,,Relâmpago Marquin,10,2024-11-05_14h07.10.889,two-digit-number-comparison-task,2024.1.5,None,2024-11-05 14h07.21.816944 -0300,
63,greater,1,0,1,0,0,26,26,51,445.22104350011796,,,,,,,,,,445.2059202999808,445.22104350011796,445.22104350011796,445.22104350011796,447.2206536999438,447.2206536999438,447.7720808000304,Menor que 55,Maior que 55,left-lower/right-greater,right,right,1,0.5474741999059916,None,,,,,,Relâmpago Marquin,10,2024-11-05_14h07.10.889,two-digit-number-comparison-task,2024.1.5,None,2024-11-05 14h07.21.816944 -0300,
72,greater,1,0,1,0,0,27,27,60,447.78734729997814,,,,,,,,,,447.7728643999435,447.78734729997814,447.78734729997814,447.78734729997814,449.78730769990943,449.78730769990943,450.3384998999536,Menor que 55,Maior que 55,left-lower/right-greater,right,right,1,0.549294900149107,None,,,,,,Relâmpago Marquin,10,2024-11-05_14h07.10.889,two-digit-number-comparison-task,2024.1.5,None,2024-11-05 14h07.21.816944 -0300,
49,lower,1,0,1,0,0,28,28,38,450.3538846001029,,,,,,,,,,450.33898020000197,450.3538846001029,450.3538846001029,450.3538846001029,452.354013599921,452.354013599921,453.0717619000934,Menor que 55,Maior que 55,left-lower/right-greater,left,left,1,0.7013306000735611,None,,,,,,Relâmpago Marquin,10,2024-11-05_14h07.10.889,two-digit-number-comparison-task,2024.1.5,None,2024-11-05 14h07.21.816944 -0300,
28,lower,1,0,1,0,0,29,29,17,453.08749149995856,,,,,,,,,,453.07218599994667,453.08749149995856,453.08749149995856,453.08749149995856,455.0870725000277,455.0870725000277,455.60484150005504,Menor que 55,Maior que 55,left-lower/right-greater,left,left,1,0.5047468999400735,None,,,,,,Relâmpago Marquin,10,2024-11-05_14h07.10.889,two-digit-number-comparison-task,2024.1.5,None,2024-11-05 14h07.21.816944 -0300,
50,lower,1,0,1,0,0,30,30,39,455.62030580011196,,,,,,,,,,455.60535759991035,455.62030580011196,455.62030580011196,455.62030580011196,457.6202054999303,457.6202054999303,458.35526500013657,Menor que 55,Maior que 55,left-lower/right-greater,left,left,1,0.7237217999063432,None,,,,,,Relâmpago Marquin,10,2024-11-05_14h07.10.889,two-digit-number-comparison-task,2024.1.5,None,2024-11-05 14h07.21.816944 -0300,
81,greater,1,0,1,0,0,31,31,69,458.3701144999359,,,,,,,,,,458.3559586999472,458.3701144999359,458.3701144999359,458.3701144999359,460.37011929997243,460.37011929997243,460.9048438000027,Menor que 55,Maior que 55,left-lower/right-greater,right,right,1,0.5179942001122981,None,,,,,,Relâmpago Marquin,10,2024-11-05_14h07.10.889,two-digit-number-comparison-task,2024.1.5,None,2024-11-05 14h07.21.816944 -0300,
48,lower,1,0,1,0,0,32,32,37,460.9201203000266,,,,,,,,,,460.90562970004976,460.9201203000266,460.9201203000266,460.9201203000266,462.920046400046,462.920046400046,463.7877925999928,Menor que 55,Maior que 55,left-lower/right-greater,left,left,1,0.856253300094977,None,,,,,,Relâmpago Marquin,10,2024-11-05_14h07.10.889,two-digit-number-comparison-task,2024.1.5,None,2024-11-05 14h07.21.816944 -0300,
90,greater,1,0,1,0,0,33,33,78,463.8035898001399,,,,,,,,,,463.78828620002605,463.8035898001399,463.8035898001399,463.8035898001399,465.80385480006225,465.80385480006225,466.2375886000227,Menor que 55,Maior que 55,left-lower/right-greater,right,right,1,0.41954419994726777,None,,,,,,Relâmpago Marquin,10,2024-11-05_14h07.10.889,two-digit-number-comparison-task,2024.1.5,None,2024-11-05 14h07.21.816944 -0300,
78,greater,1,0,1,0,0,34,34,66,466.25306649995036,,,,,,,,,,466.23804470011964,466.25306649995036,466.25306649995036,466.25306649995036,468.2535119999666,468.2535119999666,468.6874838999938,Menor que 55,Maior que 55,left-lower/right-greater,right,right,1,0.4261596999131143,None,,,,,,Relâmpago Marquin,10,2024-11-05_14h07.10.889,two-digit-number-comparison-task,2024.1.5,None,2024-11-05 14h07.21.816944 -0300,
99,greater,1,0,1,0,0,35,35,87,468.70297689992003,,,,,,,,,,468.6880318999756,468.70297689992003,468.70297689992003,468.70297689992003,470.7029518999625,470.7029518999625,471.12161549995653,Menor que 55,Maior que 55,left-lower/right-greater,right,right,1,0.417113299947232,None,,,,,,Relâmpago Marquin,10,2024-11-05_14h07.10.889,two-digit-number-comparison-task,2024.1.5,None,2024-11-05 14h07.21.816944 -0300,
16,lower,1,0,1,0,0,36,36,5,471.1363574001007,,,,,,,,,,471.1220738000702,471.1363574001007,471.1363574001007,471.1363574001007,473.1364238001406,473.1364238001406,473.88738900003955,Menor que 55,Maior que 55,left-lower/right-greater,left,left,1,0.743409400107339,None,,,,,,Relâmpago Marquin,10,2024-11-05_14h07.10.889,two-digit-number-comparison-task,2024.1.5,None,2024-11-05 14h07.21.816944 -0300,
65,greater,1,0,1,0,0,37,37,53,473.9027935999911,,,,,,,,,,473.88781620003283,473.9027935999911,473.9027935999911,473.9027935999911,475.9032578000333,475.9032578000333,476.8037682999857,Menor que 55,Maior que 55,left-lower/right-greater,right,right,1,0.8966088001616299,None,,,,,,Relâmpago Marquin,10,2024-11-05_14h07.10.889,two-digit-number-comparison-task,2024.1.5,None,2024-11-05 14h07.21.816944 -0300,
82,greater,1,0,1,0,0,38,38,70,476.8193922000937,,,,,,,,,,476.80424680002034,476.8193922000937,476.8193922000937,476.8193922000937,478.8194571000058,478.8194571000058,479.30406880006194,Menor que 55,Maior que 55,left-lower/right-greater,right,right,1,0.46814550017006695,None,,,,,,Relâmpago Marquin,10,2024-11-05_14h07.10.889,two-digit-number-comparison-task,2024.1.5,None,2024-11-05 14h07.21.816944 -0300,
32,lower,1,0,1,0,0,39,39,21,479.3191404999234,,,,,,,,,,479.3048358000815,479.3191404999234,479.3191404999234,479.3191404999234,481.3193971000146,481.3193971000146,482.3701412000228,Menor que 55,Maior que 55,left-lower/right-greater,left,left,1,1.0486339000053704,None,,,,,,Relâmpago Marquin,10,2024-11-05_14h07.10.889,two-digit-number-comparison-task,2024.1.5,None,2024-11-05 14h07.21.816944 -0300,
84,greater,1,0,1,0,0,40,40,72,482.38578979996964,,,,,,,,,,482.37058109999634,482.38578979996964,482.38578979996964,482.38578979996964,484.38585370010696,484.38585370010696,484.90337339998223,Menor que 55,Maior que 55,left-lower/right-greater,right,right,1,0.5019908999092877,None,,,,,,Relâmpago Marquin,10,2024-11-05_14h07.10.889,two-digit-number-comparison-task,2024.1.5,None,2024-11-05 14h07.21.816944 -0300,
60,greater,1,0,1,0,0,41,41,48,484.9189448999241,,,,,,,,,,484.90378829999827,484.9189448999241,484.9189448999241,484.9189448999241,486.91893390007317,486.91893390007317,487.62003959994763,Menor que 55,Maior que 55,left-lower/right-greater,right,right,1,0.6889925000723451,None,,,,,,Relâmpago Marquin,10,2024-11-05_14h07.10.889,two-digit-number-comparison-task,2024.1.5,None,2024-11-05 14h07.21.816944 -0300,
54,lower,1,0,1,0,0,42,42,43,487.6356605999172,,,,,,,,,,487.6205430000555,487.6356605999172,487.6356605999172,487.6356605999172,489.63645859993994,489.63645859993994,490.2866505999118,Menor que 55,Maior que 55,left-lower/right-greater,left,left,1,0.6437632001470774,None,,,,,,Relâmpago Marquin,10,2024-11-05_14h07.10.889,two-digit-number-comparison-task,2024.1.5,None,2024-11-05 14h07.21.816944 -0300,
77,greater,1,0,1,0,0,43,43,65,490.30197199992836,,,,,,,,,,490.28723040013574,490.30197199992836,490.30197199992836,490.30197199992836,492.30231359996833,492.30231359996833,492.73696910007857,Menor que 55,Maior que 55,left-lower/right-greater,right,right,1,0.417036899831146,None,,,,,,Relâmpago Marquin,10,2024-11-05_14h07.10.889,two-digit-number-comparison-task,2024.1.5,None,2024-11-05 14h07.21.816944 -0300,
64,greater,1,0,1,0,0,44,44,52,492.7520052001346,,,,,,,,,,492.73739970009774,492.7520052001346,492.7520052001346,492.7520052001346,494.751773300115,494.751773300115,495.2366168999579,Menor que 55,Maior que 55,left-lower/right-greater,right,right,1,0.47317529981955886,None,,,,,,Relâmpago Marquin,10,2024-11-05_14h07.10.889,two-digit-number-comparison-task,2024.1.5,None,2024-11-05 14h07.21.816944 -0300,
21,lower,1,0,1,0,0,45,45,10,495.25162960006855,,,,,,,,,,495.2373311999254,495.25162960006855,495.25162960006855,495.25162960006855,497.2519509999547,497.2519509999547,497.68600240000524,Menor que 55,Maior que 55,left-lower/right-greater,left,left,1,0.4280638999771327,None,,,,,,Relâmpago Marquin,10,2024-11-05_14h07.10.889,two-digit-number-comparison-task,2024.1.5,None,2024-11-05 14h07.21.816944 -0300,
31,lower,1,0,1,0,0,46,46,20,497.7016416999977,,,,,,,,,,497.68640849995427,497.7016416999977,497.7016416999977,497.7016416999977,499.7017087000422,499.7017087000422,500.41934740007855,Menor que 55,Maior que 55,left-lower/right-greater,left,left,1,0.7061908000614494,None,,,,,,Relâmpago Marquin,10,2024-11-05_14h07.10.889,two-digit-number-comparison-task,2024.1.5,None,2024-11-05 14h07.21.816944 -0300,
27,lower,1,0,1,0,0,47,47,16,500.4348069000989,,,,,,,,,,500.4199200000148,500.4348069000989,500.4348069000989,500.4348069000989,502.43471210007556,502.43471210007556,502.95307080005296,Menor que 55,Maior que 55,left-lower/right-greater,left,left,1,0.5084949999582022,None,,,,,,Relâmpago Marquin,10,2024-11-05_14h07.10.889,two-digit-number-comparison-task,2024.1.5,None,2024-11-05 14h07.21.816944 -0300,
92,greater,1,0,1,0,0,48,48,80,502.9680342001375,,,,,,,,,,502.9539620000869,502.9680342001375,502.9680342001375,502.9680342001375,504.967993499944,504.967993499944,505.4691314001102,Menor que 55,Maior que 55,left-lower/right-greater,right,right,1,0.4876166000030935,None,,,,,,Relâmpago Marquin,10,2024-11-05_14h07.10.889,two-digit-number-comparison-task,2024.1.5,None,2024-11-05 14h07.21.816944 -0300,
18,lower,1,0,1,0,0,49,49,7,505.48478309996426,,,,,,,,,,505.46954650012776,505.48478309996426,505.48478309996426,505.48478309996426,507.4845893001184,507.4845893001184,507.9529546000995,Menor que 55,Maior que 55,left-lower/right-greater,left,left,1,0.459537300048396,None,,,,,,Relâmpago Marquin,10,2024-11-05_14h07.10.889,two-digit-number-comparison-task,2024.1.5,None,2024-11-05 14h07.21.816944 -0300,
19,lower,1,0,1,0,0,50,50,8,507.9680173001252,,,,,,,,,,507.95343340002,507.9680173001252,507.9680173001252,507.9680173001252,509.9677047000732,509.9677047000732,510.5020026001148,Menor que 55,Maior que 55,left-lower/right-greater,left,left,1,0.5201992001384497,None,,,,,,Relâmpago Marquin,10,2024-11-05_14h07.10.889,two-digit-number-comparison-task,2024.1.5,None,2024-11-05 14h07.21.816944 -0300,
45,lower,1,0,1,0,0,51,51,34,510.51768429996446,,,,,,,,,,510.5024234999437,510.51768429996446,510.51768429996446,510.51768429996446,512.517833400052,512.517833400052,513.0528647999745,Menor que 55,Maior que 55,left-lower/right-greater,left,left,1,0.521936799865216,None,,,,,,Relâmpago Marquin,10,2024-11-05_14h07.10.889,two-digit-number-comparison-task,2024.1.5,None,2024-11-05 14h07.21.816944 -0300,
44,lower,1,0,1,0,0,52,52,33,513.067668300122,,,,,,,,,,513.0535907000303,513.067668300122,513.067668300122,513.067668300122,515.0675230000634,515.0675230000634,515.7519926000386,Menor que 55,Maior que 55,left-lower/right-greater,left,left,1,0.6763224999886006,None,,,,,,Relâmpago Marquin,10,2024-11-05_14h07.10.889,two-digit-number-comparison-task,2024.1.5,None,2024-11-05 14h07.21.816944 -0300,
14,lower,1,0,1,0,0,53,53,3,515.7676232999656,,,,,,,,,,515.7525601000525,515.7676232999656,515.7676232999656,515.7676232999656,517.7672906999942,517.7672906999942,518.2182680000551,Menor que 55,Maior que 55,left-lower/right-greater,left,left,1,0.4402233997825533,None,,,,,,Relâmpago Marquin,10,2024-11-05_14h07.10.889,two-digit-number-comparison-task,2024.1.5,None,2024-11-05 14h07.21.816944 -0300,
26,lower,1,0,1,0,0,54,54,15,518.2338875001296,,,,,,,,,,518.2187089999206,518.2338875001296,518.2338875001296,518.2338875001296,520.2340035000816,520.2340035000816,520.7521262001246,Menor que 55,Maior que 55,left-lower/right-greater,left,left,1,0.5098163997754455,None,,,,,,Relâmpago Marquin,10,2024-11-05_14h07.10.889,two-digit-number-comparison-task,2024.1.5,None,2024-11-05 14h07.21.816944 -0300,
35,lower,1,0,1,0,0,55,55,24,520.7673673999961,,,,,,,,,,520.7529027001001,520.7673673999961,520.7673673999961,520.7673673999961,522.7672004001215,522.7672004001215,523.3017921999563,Menor que 55,Maior que 55,left-lower/right-greater,left,left,1,0.5205542000476271,None,,,,,,Relâmpago Marquin,10,2024-11-05_14h07.10.889,two-digit-number-comparison-task,2024.1.5,None,2024-11-05 14h07.21.816944 -0300,
25,lower,1,0,1,0,0,56,56,14,523.3172434999142,,,,,,,,,,523.3022040000651,523.3172434999142,523.3172434999142,523.3172434999142,525.3171490000095,525.3171490000095,525.818093799986,Menor que 55,Maior que 55,left-lower/right-greater,left,left,1,0.4841701998375356,None,,,,,,Relâmpago Marquin,10,2024-11-05_14h07.10.889,two-digit-number-comparison-task,2024.1.5,None,2024-11-05 14h07.21.816944 -0300,
59,greater,1,0,1,0,0,57,57,47,525.833498199936,,,,,,,,,,525.818538099993,525.833498199936,525.833498199936,525.833498199936,527.8336573999841,527.8336573999841,528.5510845999233,Menor que 55,Maior que 55,left-lower/right-greater,right,right,1,0.7097831000573933,None,,,,,,Relâmpago Marquin,10,2024-11-05_14h07.10.889,two-digit-number-comparison-task,2024.1.5,None,2024-11-05 14h07.21.816944 -0300,
62,greater,1,0,1,0,0,58,58,50,528.5668562999927,,,,,,,,,,528.5515433999244,528.5668562999927,528.5668562999927,528.5668562999927,530.5667685000226,530.5667685000226,531.1342998999171,Menor que 55,Maior que 55,left-lower/right-greater,right,right,1,0.5609767001587898,None,,,,,,Relâmpago Marquin,10,2024-11-05_14h07.10.889,two-digit-number-comparison-task,2024.1.5,None,2024-11-05 14h07.21.816944 -0300,
83,greater,1,0,1,0,0,59,59,71,531.1500208000652,,,,,,,,,,531.1347912000492,531.1500208000652,531.1500208000652,531.1500208000652,533.1501360000111,533.1501360000111,533.6346048999112,Menor que 55,Maior que 55,left-lower/right-greater,right,right,1,0.4815787998959422,None,,,,,,Relâmpago Marquin,10,2024-11-05_14h07.10.889,two-digit-number-comparison-task,2024.1.5,None,2024-11-05 14h07.21.816944 -0300,
85,greater,1,0,1,0,0,60,60,73,533.6502364000771,,,,,,,,,,533.6350142001174,533.6502364000771,533.6502364000771,533.6502364000771,535.6499554000329,535.6499554000329,536.1676781999413,Menor que 55,Maior que 55,left-lower/right-greater,right,right,1,0.5103711001574993,None,,,,,,Relâmpago Marquin,10,2024-11-05_14h07.10.889,two-digit-number-comparison-task,2024.1.5,None,2024-11-05 14h07.21.816944 -0300,
80,greater,1,0,1,0,0,61,61,68,536.1832010999788,,,,,,,,,,536.1681812000461,536.1832010999788,536.1832010999788,536.1832010999788,538.1832815001253,538.1832815001253,538.6673562999349,Menor que 55,Maior que 55,left-lower/right-greater,right,right,1,0.4724485999904573,None,,,,,,Relâmpago Marquin,10,2024-11-05_14h07.10.889,two-digit-number-comparison-task,2024.1.5,None,2024-11-05 14h07.21.816944 -0300,
11,lower,1,0,1,0,0,62,62,0,538.682948499918,,,,,,,,,,538.6678174000699,538.682948499918,538.682948499918,538.682948499918,540.6830140000675,540.6830140000675,541.3841860000975,Menor que 55,Maior que 55,left-lower/right-greater,left,left,1,0.6847616999875754,None,,,,,,Relâmpago Marquin,10,2024-11-05_14h07.10.889,two-digit-number-comparison-task,2024.1.5,None,2024-11-05 14h07.21.816944 -0300,
30,lower,1,0,1,0,0,63,63,19,541.3996806999203,,,,,,,,,,541.384616299998,541.3996806999203,541.3996806999203,541.3996806999203,543.3994207999203,543.3994207999203,544.0339395001065,Menor que 55,Maior que 55,left-lower/right-greater,left,left,1,0.6320509999059141,None,,,,,,Relâmpago Marquin,10,2024-11-05_14h07.10.889,two-digit-number-comparison-task,2024.1.5,None,2024-11-05 14h07.21.816944 -0300,
37,lower,1,0,1,0,0,64,64,26,544.0494804000482,,,,,,,,,,544.034398799995,544.0494804000482,544.0494804000482,544.0494804000482,546.0494449001271,546.0494449001271,546.8170849001035,Menor que 55,Maior que 55,left-lower/right-greater,left,left,1,0.7507478999905288,None,,,,,,Relâmpago Marquin,10,2024-11-05_14h07.10.889,two-digit-number-comparison-task,2024.1.5,None,2024-11-05 14h07.21.816944 -0300,
56,greater,1,0,1,0,0,65,65,44,546.8326169999782,,,,,,,,,,546.8174982999917,546.8326169999782,546.8326169999782,546.8326169999782,548.8327476999257,548.8327476999257,549.3505081001204,Menor que 55,Maior que 55,left-lower/right-greater,right,right,1,0.5021363000851125,None,,,,,,Relâmpago Marquin,10,2024-11-05_14h07.10.889,two-digit-number-comparison-task,2024.1.5,None,2024-11-05 14h07.21.816944 -0300,
29,lower,1,0,1,0,0,66,66,18,549.3660711001139,,,,,,,,,,549.350962900091,549.3660711001139,549.3660711001139,549.3660711001139,551.3658523000777,551.3658523000777,551.7834515001159,Menor que 55,Maior que 55,left-lower/right-greater,left,left,1,0.40959850000217557,None,,,,,,Relâmpago Marquin,10,2024-11-05_14h07.10.889,two-digit-number-comparison-task,2024.1.5,None,2024-11-05 14h07.21.816944 -0300,
57,greater,1,0,1,0,0,67,67,45,551.7990489001386,,,,,,,,,,551.7839718000032,551.7990489001386,551.7990489001386,551.7990489001386,553.7990562999621,553.7990562999621,554.4336125999689,Menor que 55,Maior que 55,left-lower/right-greater,right,right,1,0.6252196000423282,None,,,,,,Relâmpago Marquin,10,2024-11-05_14h07.10.889,two-digit-number-comparison-task,2024.1.5,None,2024-11-05 14h07.21.816944 -0300,
52,lower,1,0,1,0,0,68,68,41,554.4488955999259,,,,,,,,,,554.434144299943,554.4488955999259,554.4488955999259,554.4488955999259,556.4490116001107,556.4490116001107,557.083435199922,Menor que 55,Maior que 55,left-lower/right-greater,left,left,1,0.6224871999584138,None,,,,,,Relâmpago Marquin,10,2024-11-05_14h07.10.889,two-digit-number-comparison-task,2024.1.5,None,2024-11-05 14h07.21.816944 -0300,
38,lower,1,0,1,0,0,69,69,27,557.0989813001361,,,,,,,,,,557.0838959000539,557.0989813001361,557.0989813001361,557.0989813001361,559.0987653001212,559.0987653001212,559.5664180000313,Menor que 55,Maior que 55,left-lower/right-greater,left,left,1,0.4614664001855999,None,,,,,,Relâmpago Marquin,10,2024-11-05_14h07.10.889,two-digit-number-comparison-task,2024.1.5,None,2024-11-05 14h07.21.816944 -0300,
36,lower,1,0,1,0,0,70,70,25,559.5821114000864,,,,,,,,,,559.5668530999683,559.5821114000864,559.5821114000864,559.5821114000864,561.5822763000615,561.5822763000615,562.1162439000327,Menor que 55,Maior que 55,left-lower/right-greater,left,left,1,0.5295085001271218,None,,,,,,Relâmpago Marquin,10,2024-11-05_14h07.10.889,two-digit-number-comparison-task,2024.1.5,None,2024-11-05 14h07.21.816944 -0300,
71,greater,1,0,1,0,0,71,71,59,562.1318530999124,,,,,,,,,,562.1166630000807,562.1318530999124,562.1318530999124,562.1318530999124,564.1153178999666,564.1153178999666,564.9994457000867,Menor que 55,Maior que 55,left-lower/right-greater,right,right,1,0.8761772001162171,None,,,,,,Relâmpago Marquin,10,2024-11-05_14h07.10.889,two-digit-number-comparison-task,2024.1.5,None,2024-11-05 14h07.21.816944 -0300,
20,lower,1,0,1,0,0,72,72,9,565.0151649999898,,,,,,,,,,564.999912600033,565.0151649999898,565.0151649999898,565.0151649999898,567.0150580999907,567.0150580999907,567.5659620000515,Menor que 55,Maior que 55,left-lower/right-greater,left,left,1,0.5362354998942465,None,,,,,,Relâmpago Marquin,10,2024-11-05_14h07.10.889,two-digit-number-comparison-task,2024.1.5,None,2024-11-05 14h07.21.816944 -0300,
13,lower,1,0,1,0,0,73,73,2,567.5815314000938,,,,,,,,,,567.5666243000887,567.5815314000938,567.5815314000938,567.5815314000938,569.5817605000921,569.5817605000921,570.0332869000267,Menor que 55,Maior que 55,left-lower/right-greater,left,left,1,0.4499795997980982,None,,,,,,Relâmpago Marquin,10,2024-11-05_14h07.10.889,two-digit-number-comparison-task,2024.1.5,None,2024-11-05 14h07.21.816944 -0300,
67,greater,1,0,1,0,0,74,74,55,570.0480885000434,,,,,,,,,,570.033795400057,570.0480885000434,570.0480885000434,570.0480885000434,572.0486520000268,572.0486520000268,572.6159471999854,Menor que 55,Maior que 55,left-lower/right-greater,right,right,1,0.5508558000437915,None,,,,,,Relâmpago Marquin,10,2024-11-05_14h07.10.889,two-digit-number-comparison-task,2024.1.5,None,2024-11-05 14h07.21.816944 -0300,
46,lower,1,0,1,0,0,75,75,35,572.6315244999714,,,,,,,,,,572.6163741000928,572.6315244999714,572.6315244999714,572.6315244999714,574.6313752999995,574.6313752999995,575.2987557000015,Menor que 55,Maior que 55,left-lower/right-greater,left,left,1,0.6562190998811275,None,,,,,,Relâmpago Marquin,10,2024-11-05_14h07.10.889,two-digit-number-comparison-task,2024.1.5,None,2024-11-05 14h07.21.816944 -0300,
73,greater,1,0,1,0,0,76,76,61,575.3145008001011,,,,,,,,,,575.2991828001104,575.3145008001011,575.3145008001011,575.3145008001011,577.2979314001277,577.2979314001277,577.7324429999571,Menor que 55,Maior que 55,left-lower/right-greater,right,right,1,0.4217512998729944,None,,,,,,Relâmpago Marquin,10,2024-11-05_14h07.10.889,two-digit-number-comparison-task,2024.1.5,None,2024-11-05 14h07.21.816944 -0300,
51,lower,1,0,1,0,0,77,77,40,577.7478185999207,,,,,,,,,,577.7329804999754,577.7478185999207,577.7478185999207,577.7478185999207,579.7476941000205,579.7476941000205,580.4661135000642,Menor que 55,Maior que 55,left-lower/right-greater,left,left,1,0.7157748998142779,None,,,,,,Relâmpago Marquin,10,2024-11-05_14h07.10.889,two-digit-number-comparison-task,2024.1.5,None,2024-11-05 14h07.21.816944 -0300,
97,greater,1,0,1,0,0,78,78,85,580.4810115001164,,,,,,,,,,580.4670424999204,580.4810115001164,580.4810115001164,580.4810115001164,582.481038399972,582.481038399972,582.9319402000401,Menor que 55,Maior que 55,left-lower/right-greater,right,right,1,0.44762369990348816,None,,,,,,Relâmpago Marquin,10,2024-11-05_14h07.10.889,two-digit-number-comparison-task,2024.1.5,None,2024-11-05 14h07.21.816944 -0300,
58,greater,1,0,1,0,0,79,79,46,582.9474965999834,,,,,,,,,,582.9324239001144,582.9474965999834,582.9474965999834,582.9474965999834,584.9476526000071,584.9476526000071,585.5820973999798,Menor que 55,Maior que 55,left-lower/right-greater,right,right,1,0.6276600998826325,None,,,,,,Relâmpago Marquin,10,2024-11-05_14h07.10.889,two-digit-number-comparison-task,2024.1.5,None,2024-11-05 14h07.21.816944 -0300,
66,greater,1,0,1,0,0,80,80,54,585.5975629000459,,,,,,,,,,585.5826217001304,585.5975629000459,585.5975629000459,585.5975629000459,587.5974876000546,587.5974876000546,588.0650881000329,Menor que 55,Maior que 55,left-lower/right-greater,right,right,1,0.4582589000929147,None,,,,,,Relâmpago Marquin,10,2024-11-05_14h07.10.889,two-digit-number-comparison-task,2024.1.5,None,2024-11-05 14h07.21.816944 -0300,
75,greater,1,0,1,0,0,81,81,63,588.0806444999762,,,,,,,,,,588.0655926000327,588.0806444999762,588.0806444999762,588.0806444999762,590.0805873000063,590.0805873000063,590.4532538999338,Menor que 55,Maior que 55,left-lower/right-greater,right,right,1,0.3710696999914944,None,,,,,,Relâmpago Marquin,10,2024-11-05_14h07.10.889,two-digit-number-comparison-task,2024.1.5,None,2024-11-05 14h07.21.816944 -0300,
23,lower,1,0,1,0,0,82,82,12,590.4637120000552,,,,,,,,,,590.4539914999623,590.4637120000552,590.4637120000552,590.4637120000552,592.4638829999603,592.4638829999603,592.8480227000546,Menor que 55,Maior que 55,left-lower/right-greater,left,left,1,0.36772239999845624,None,,,,,,Relâmpago Marquin,10,2024-11-05_14h07.10.889,two-digit-number-comparison-task,2024.1.5,None,2024-11-05 14h07.21.816944 -0300,
42,lower,1,0,1,0,0,83,83,31,592.8637365000322,,,,,,,,,,592.8484738999978,592.8637365000322,592.8637365000322,592.8637365000322,594.86369249993,594.86369249993,595.6979326999281,Menor que 55,Maior que 55,left-lower/right-greater,left,left,1,0.8316808000672609,None,,,,,,Relâmpago Marquin,10,2024-11-05_14h07.10.889,two-digit-number-comparison-task,2024.1.5,None,2024-11-05 14h07.21.816944 -0300,
40,lower,1,0,1,0,0,84,84,29,595.713503499981,,,,,,,,,,595.6984049000312,595.713503499981,595.713503499981,595.713503499981,597.7136949000414,597.7136949000414,598.131425099913,Menor que 55,Maior que 55,left-lower/right-greater,left,left,1,0.41366330021992326,None,,,,,,Relâmpago Marquin,10,2024-11-05_14h07.10.889,two-digit-number-comparison-task,2024.1.5,None,2024-11-05 14h07.21.816944 -0300,
79,greater,1,0,1,0,0,85,85,67,598.1467116000131,,,,,,,,,,598.1321267001331,598.1467116000131,598.1467116000131,598.1467116000131,600.1469821999781,600.1469821999781,600.5979353000876,Menor que 55,Maior que 55,left-lower/right-greater,right,right,1,0.43673110008239746,None,,,,,,Relâmpago Marquin,10,2024-11-05_14h07.10.889,two-digit-number-comparison-task,2024.1.5,None,2024-11-05 14h07.21.816944 -0300,
47,lower,1,0,1,0,0,86,86,36,600.6134591000155,,,,,,,,,,600.5984153000172,600.6134591000155,600.6134591000155,600.6134591000155,602.6132360000629,602.6132360000629,603.2644420000724,Menor que 55,Maior que 55,left-lower/right-greater,left,left,1,0.642737700138241,None,,,,,,Relâmpago Marquin,10,2024-11-05_14h07.10.889,two-digit-number-comparison-task,2024.1.5,None,2024-11-05 14h07.21.816944 -0300,
86,greater,1,0,1,0,0,87,87,74,603.2799136000685,,,,,,,,,,603.264867400052,603.2799136000685,603.2799136000685,603.2799136000685,605.2798639000393,605.2798639000393,605.7646103999577,Menor que 55,Maior que 55,left-lower/right-greater,right,right,1,0.4713186000008136,None,,,,,,Relâmpago Marquin,10,2024-11-05_14h07.10.889,two-digit-number-comparison-task,2024.1.5,None,2024-11-05 14h07.21.816944 -0300,
,,1,0,1,0,,,,,,,,,,,,,,,,,,,,,,,,,,,,,,605.7649652999826,605.7799261999317,605.7799261999317,605.7799261999317,653.5956107999664,Relâmpago Marquin,10,2024-11-05_14h07.10.889,two-digit-number-comparison-task,2024.1.5,None,2024-11-05 14h07.21.816944 -0300,
75,greater,2,0,2,0,0,0,0,63,655.1114642999601,,,,,,653.5958757000044,653.6230045000557,653.6230045000557,655.0953532999847,655.1056297000032,655.1114642999601,655.1114642999601,655.1114642999601,657.11079600011,657.11079600011,657.6952836001292,Menor que 55,Maior que 55,left-lower/right-greater,right,right,1,0.5772419001441449,None,,,,,,Relâmpago Marquin,10,2024-11-05_14h07.10.889,two-digit-number-comparison-task,2024.1.5,None,2024-11-05 14h07.21.816944 -0300,
67,greater,2,0,2,0,0,1,1,55,657.7107615000568,,,,,,,,,,657.696266700048,657.7107615000568,657.7107615000568,657.7107615000568,659.7105165000539,659.7105165000539,660.5284913999494,Menor que 55,Maior que 55,left-lower/right-greater,right,right,1,0.8089842998888344,None,,,,,,Relâmpago Marquin,10,2024-11-05_14h07.10.889,two-digit-number-comparison-task,2024.1.5,None,2024-11-05 14h07.21.816944 -0300,
82,greater,2,0,2,0,0,2,2,70,660.5439347999636,,,,,,,,,,660.5289133000188,660.5439347999636,660.5439347999636,660.5439347999636,662.543763200054,662.543763200054,663.0117273000069,Menor que 55,Maior que 55,left-lower/right-greater,right,right,1,0.45585369993932545,None,,,,,,Relâmpago Marquin,10,2024-11-05_14h07.10.889,two-digit-number-comparison-task,2024.1.5,None,2024-11-05 14h07.21.816944 -0300,
42,lower,2,0,2,0,0,3,3,31,663.0270622000098,,,,,,,,,,663.0121633999515,663.0270622000098,663.0270622000098,663.0270622000098,665.0270424999762,665.0270424999762,665.5118996000383,Menor que 55,Maior que 55,left-lower/right-greater,left,left,1,0.47653539991006255,None,,,,,,Relâmpago Marquin,10,2024-11-05_14h07.10.889,two-digit-number-comparison-task,2024.1.5,None,2024-11-05 14h07.21.816944 -0300,
78,greater,2,0,2,0,0,4,4,66,665.5270913999993,,,,,,,,,,665.5125410000328,665.5270913999993,665.5270913999993,665.5270913999993,667.5267908999231,667.5267908999231,667.977966299979,Menor que 55,Maior que 55,left-lower/right-greater,right,right,1,0.4413836000021547,None,,,,,,Relâmpago Marquin,10,2024-11-05_14h07.10.889,two-digit-number-comparison-task,2024.1.5,None,2024-11-05 14h07.21.816944 -0300,
71,greater,2,0,2,0,0,5,5,59,667.9933619999792,,,,,,,,,,667.9783725999296,667.9933619999792,667.9933619999792,667.9933619999792,669.9934998999815,669.9934998999815,670.4776802000124,Menor que 55,Maior que 55,left-lower/right-greater,right,right,1,0.4777596998028457,None,,,,,,Relâmpago Marquin,10,2024-11-05_14h07.10.889,two-digit-number-comparison-task,2024.1.5,None,2024-11-05 14h07.21.816944 -0300,
56,greater,2,0,2,0,0,6,6,44,670.4931827001274,,,,,,,,,,670.4780862999614,670.4931827001274,670.4931827001274,670.4931827001274,672.4932435001247,672.4932435001247,673.1943085000385,Menor que 55,Maior que 55,left-lower/right-greater,right,right,1,0.6977764999028295,None,,,,,,Relâmpago Marquin,10,2024-11-05_14h07.10.889,two-digit-number-comparison-task,2024.1.5,None,2024-11-05 14h07.21.816944 -0300,
19,lower,2,0,2,0,0,7,7,8,673.209852400003,,,,,,,,,,673.1947948001325,673.209852400003,673.209852400003,673.209852400003,675.2100456000771,675.2100456000771,675.6941871000454,Menor que 55,Maior que 55,left-lower/right-greater,left,left,1,0.4690845999866724,None,,,,,,Relâmpago Marquin,10,2024-11-05_14h07.10.889,two-digit-number-comparison-task,2024.1.5,None,2024-11-05 14h07.21.816944 -0300,
22,lower,2,0,2,0,0,8,8,11,675.709566900041,,,,,,,,,,675.6947234000545,675.709566900041,675.709566900041,675.709566900041,677.7097146001179,677.7097146001179,678.3106746999547,Menor que 55,Maior que 55,left-lower/right-greater,left,left,1,0.5938518999610096,None,,,,,,Relâmpago Marquin,10,2024-11-05_14h07.10.889,two-digit-number-comparison-task,2024.1.5,None,2024-11-05 14h07.21.816944 -0300,
33,lower,2,0,2,0,0,9,9,22,678.3263127000537,,,,,,,,,,678.3112028001342,678.3263127000537,678.3263127000537,678.3263127000537,680.3263177999761,680.3263177999761,680.7612950999755,Menor que 55,Maior que 55,left-lower/right-greater,left,left,1,0.43360190000385046,None,,,,,,Relâmpago Marquin,10,2024-11-05_14h07.10.889,two-digit-number-comparison-task,2024.1.5,None,2024-11-05 14h07.21.816944 -0300,
79,greater,2,0,2,0,0,10,10,67,680.776310400106,,,,,,,,,,680.7617508999538,680.776310400106,680.776310400106,680.776310400106,682.7761651999317,682.7761651999317,683.2606889000162,Menor que 55,Maior que 55,left-lower/right-greater,right,right,1,0.480049200123176,None,,,,,,Relâmpago Marquin,10,2024-11-05_14h07.10.889,two-digit-number-comparison-task,2024.1.5,None,2024-11-05 14h07.21.816944 -0300,
18,lower,2,0,2,0,0,11,11,7,683.2760755000636,,,,,,,,,,683.261403700104,683.2760755000636,683.2760755000636,683.2760755000636,685.2763734001201,685.2763734001201,685.6603417000733,Menor que 55,Maior que 55,left-lower/right-greater,left,left,1,0.3723462999332696,None,,,,,,Relâmpago Marquin,10,2024-11-05_14h07.10.889,two-digit-number-comparison-task,2024.1.5,None,2024-11-05 14h07.21.816944 -0300,
83,greater,2,0,2,0,0,12,12,71,685.676011600066,,,,,,,,,,685.660782800056,685.676011600066,685.676011600066,685.676011600066,687.6758495999966,687.6758495999966,688.2099331999198,Menor que 55,Maior que 55,left-lower/right-greater,right,right,1,0.5319922000635415,None,,,,,,Relâmpago Marquin,10,2024-11-05_14h07.10.889,two-digit-number-comparison-task,2024.1.5,None,2024-11-05 14h07.21.816944 -0300,
14,lower,2,0,2,0,0,13,13,3,688.2258810999338,,,,,,,,,,688.2103518000804,688.2258810999338,688.2258810999338,688.2258810999338,690.2258057999425,690.2258057999425,690.6101675999817,Menor que 55,Maior que 55,left-lower/right-greater,left,left,1,0.37382459989748895,None,,,,,,Relâmpago Marquin,10,2024-11-05_14h07.10.889,two-digit-number-comparison-task,2024.1.5,None,2024-11-05 14h07.21.816944 -0300,
25,lower,2,0,2,0,0,14,14,14,690.62569850008,,,,,,,,,,690.6106195999309,690.62569850008,690.62569850008,690.62569850008,692.6258614999242,692.6258614999242,693.0445886000525,Menor que 55,Maior que 55,left-lower/right-greater,left,left,1,0.4139809999614954,None,,,,,,Relâmpago Marquin,10,2024-11-05_14h07.10.889,two-digit-number-comparison-task,2024.1.5,None,2024-11-05 14h07.21.816944 -0300,
76,greater,2,0,2,0,0,15,15,64,693.0591846001334,,,,,,,,,,693.0461283000186,693.0591846001334,693.0591846001334,693.0591846001334,695.0587516999803,695.0587516999803,695.5266227000393,Menor que 55,Maior que 55,left-lower/right-greater,right,right,1,0.46103110001422465,None,,,,,,Relâmpago Marquin,10,2024-11-05_14h07.10.889,two-digit-number-comparison-task,2024.1.5,None,2024-11-05 14h07.21.816944 -0300,
35,lower,2,0,2,0,0,16,16,24,695.5420977000613,,,,,,,,,,695.5270605999976,695.5420977000613,695.5420977000613,695.5420977000613,697.5427101000678,697.5427101000678,697.8931360000279,Menor que 55,Maior que 55,left-lower/right-greater,left,left,1,0.3368675000965595,None,,,,,,Relâmpago Marquin,10,2024-11-05_14h07.10.889,two-digit-number-comparison-task,2024.1.5,None,2024-11-05 14h07.21.816944 -0300,
74,greater,2,0,2,0,0,17,17,62,697.9089136000257,,,,,,,,,,697.8935430001002,697.9089136000257,697.9089136000257,697.9089136000257,699.9086410999298,699.9086410999298,700.3930021999404,Menor que 55,Maior que 55,left-lower/right-greater,right,right,1,0.4822633001022041,None,,,,,,Relâmpago Marquin,10,2024-11-05_14h07.10.889,two-digit-number-comparison-task,2024.1.5,None,2024-11-05 14h07.21.816944 -0300,
66,greater,2,0,2,0,0,18,18,54,700.408473599935,,,,,,,,,,700.3934397001285,700.408473599935,700.408473599935,700.408473599935,702.4085536999628,702.4085536999628,702.9430074999109,Menor que 55,Maior que 55,left-lower/right-greater,right,right,1,0.5264811001252383,None,,,,,,Relâmpago Marquin,10,2024-11-05_14h07.10.889,two-digit-number-comparison-task,2024.1.5,None,2024-11-05 14h07.21.816944 -0300,
89,greater,2,0,2,0,0,19,19,77,702.958409300074,,,,,,,,,,702.9435201999731,702.958409300074,702.958409300074,702.958409300074,704.9584165001288,704.9584165001288,705.3594915999565,Menor que 55,Maior que 55,left-lower/right-greater,right,right,1,0.39282690011896193,None,,,,,,Relâmpago Marquin,10,2024-11-05_14h07.10.889,two-digit-number-comparison-task,2024.1.5,None,2024-11-05 14h07.21.816944 -0300,
48,lower,2,0,2,0,0,20,20,37,705.3750469000079,,,,,,,,,,705.3599531000946,705.3750469000079,705.3750469000079,705.3750469000079,707.3750040999148,707.3750040999148,707.9427674999461,Menor que 55,Maior que 55,left-lower/right-greater,left,left,1,0.5611167999450117,None,,,,,,Relâmpago Marquin,10,2024-11-05_14h07.10.889,two-digit-number-comparison-task,2024.1.5,None,2024-11-05 14h07.21.816944 -0300,
63,greater,2,0,2,0,0,21,21,51,707.9581671999767,,,,,,,,,,707.9431956000626,707.9581671999767,707.9581671999767,707.9581671999767,709.9582919999957,709.9582919999957,710.3757740999572,Menor que 55,Maior que 55,left-lower/right-greater,right,right,1,0.4082315999548882,None,,,,,,Relâmpago Marquin,10,2024-11-05_14h07.10.889,two-digit-number-comparison-task,2024.1.5,None,2024-11-05 14h07.21.816944 -0300,
57,greater,2,0,2,0,0,22,22,45,710.391293700086,,,,,,,,,,710.3761823000386,710.391293700086,710.391293700086,710.391293700086,712.39138990012,712.39138990012,712.9590728001203,Menor que 55,Maior que 55,left-lower/right-greater,right,right,1,0.5513875000178814,None,,,,,,Relâmpago Marquin,10,2024-11-05_14h07.10.889,two-digit-number-comparison-task,2024.1.5,None,2024-11-05 14h07.21.816944 -0300,
51,lower,2,0,2,0,0,23,23,40,712.974607200129,,,,,,,,,,712.9595512999222,712.974607200129,712.974607200129,712.974607200129,714.9746636999771,714.9746636999771,715.4922637001146,Menor que 55,Maior que 55,left-lower/right-greater,left,left,1,0.5123664001002908,None,,,,,,Relâmpago Marquin,10,2024-11-05_14h07.10.889,two-digit-number-comparison-task,2024.1.5,None,2024-11-05 14h07.21.816944 -0300,
60,greater,2,0,2,0,0,24,24,48,715.507837699959,,,,,,,,,,715.4927038000897,715.507837699959,715.507837699959,715.507837699959,717.5079117000569,717.5079117000569,717.9257539999671,Menor que 55,Maior que 55,left-lower/right-greater,right,right,1,0.41239740001037717,None,,,,,,Relâmpago Marquin,10,2024-11-05_14h07.10.889,two-digit-number-comparison-task,2024.1.5,None,2024-11-05 14h07.21.816944 -0300,
23,lower,2,0,2,0,0,25,25,12,717.9411488999613,,,,,,,,,,717.9261765999254,717.9411488999613,717.9411488999613,717.9411488999613,719.941021299921,719.941021299921,720.4252091001254,Menor que 55,Maior que 55,left-lower/right-greater,left,left,1,0.4671744001097977,None,,,,,,Relâmpago Marquin,10,2024-11-05_14h07.10.889,two-digit-number-comparison-task,2024.1.5,None,2024-11-05 14h07.21.816944 -0300,
20,lower,2,0,2,0,0,26,26,9,720.440888900077,,,,,,,,,,720.4256164000835,720.440888900077,720.440888900077,720.440888900077,722.4409064000938,722.4409064000938,722.8752025999129,Menor que 55,Maior que 55,left-lower/right-greater,left,left,1,0.4305010999087244,None,,,,,,Relâmpago Marquin,10,2024-11-05_14h07.10.889,two-digit-number-comparison-task,2024.1.5,None,2024-11-05 14h07.21.816944 -0300,
11,lower,2,0,2,0,0,27,27,0,722.8908073001076,,,,,,,,,,722.8756041999441,722.8908073001076,722.8908073001076,722.8908073001076,724.8908373999875,724.8908373999875,725.2419926999137,Menor que 55,Maior que 55,left-lower/right-greater,left,left,1,0.34847640013322234,None,,,,,,Relâmpago Marquin,10,2024-11-05_14h07.10.889,two-digit-number-comparison-task,2024.1.5,None,2024-11-05 14h07.21.816944 -0300,
80,greater,2,0,2,0,0,28,28,68,725.2574879000895,,,,,,,,,,725.2424842000473,725.2574879000895,725.2574879000895,725.2574879000895,727.2572910001036,727.2572910001036,727.6750596999191,Menor que 55,Maior que 55,left-lower/right-greater,right,right,1,0.40600530011579394,None,,,,,,Relâmpago Marquin,10,2024-11-05_14h07.10.889,two-digit-number-comparison-task,2024.1.5,None,2024-11-05 14h07.21.816944 -0300,
70,greater,2,0,2,0,0,29,29,58,727.690484700026,,,,,,,,,,727.6756015999708,727.690484700026,727.690484700026,727.690484700026,729.690619100118,729.690619100118,730.124995799968,Menor que 55,Maior que 55,left-lower/right-greater,right,right,1,0.4203089999500662,None,,,,,,Relâmpago Marquin,10,2024-11-05_14h07.10.889,two-digit-number-comparison-task,2024.1.5,None,2024-11-05 14h07.21.816944 -0300,
28,lower,2,0,2,0,0,30,30,17,730.1404770999216,,,,,,,,,,730.125539700035,730.1404770999216,730.1404770999216,730.1404770999216,732.1404579000082,732.1404579000082,732.5415243001189,Menor que 55,Maior que 55,left-lower/right-greater,left,left,1,0.3872480997815728,None,,,,,,Relâmpago Marquin,10,2024-11-05_14h07.10.889,two-digit-number-comparison-task,2024.1.5,None,2024-11-05 14h07.21.816944 -0300,
45,lower,2,0,2,0,0,31,31,34,732.557093600044,,,,,,,,,,732.5419372001197,732.557093600044,732.557093600044,732.557093600044,734.5567061000038,734.5567061000038,735.0579548000824,Menor que 55,Maior que 55,left-lower/right-greater,left,right,0,0.4984620998147875,None,,,,,,Relâmpago Marquin,10,2024-11-05_14h07.10.889,two-digit-number-comparison-task,2024.1.5,None,2024-11-05 14h07.21.816944 -0300,
61,greater,2,0,2,0,0,32,32,49,735.0733239001129,,,,,,,,,,735.0585169000551,735.0733239001129,735.0733239001129,735.0733239001129,737.0734151999932,737.0734151999932,737.8080011000857,Menor que 55,Maior que 55,left-lower/right-greater,right,right,1,0.7175531999673694,None,,,,,,Relâmpago Marquin,10,2024-11-05_14h07.10.889,two-digit-number-comparison-task,2024.1.5,None,2024-11-05 14h07.21.816944 -0300,
85,greater,2,0,2,0,0,33,33,73,737.8234633000102,,,,,,,,,,737.8084305000957,737.8234633000102,737.8234633000102,737.8234633000102,739.8233553001191,739.8233553001191,740.2744976000395,Menor que 55,Maior que 55,left-lower/right-greater,right,right,1,0.44012090004980564,None,,,,,,Relâmpago Marquin,10,2024-11-05_14h07.10.889,two-digit-number-comparison-task,2024.1.5,None,2024-11-05 14h07.21.816944 -0300,
12,lower,2,0,2,0,0,34,34,1,740.2899726999458,,,,,,,,,,740.2749503001105,740.2899726999458,740.2899726999458,740.2899726999458,742.2900233000983,742.2900233000983,742.7076799999923,Menor que 55,Maior que 55,left-lower/right-greater,left,left,1,0.405181200010702,None,,,,,,Relâmpago Marquin,10,2024-11-05_14h07.10.889,two-digit-number-comparison-task,2024.1.5,None,2024-11-05 14h07.21.816944 -0300,
77,greater,2,0,2,0,0,35,35,65,742.7230062000453,,,,,,,,,,742.7085613000672,742.7230062000453,742.7230062000453,742.7230062000453,744.7230346999131,744.7230346999131,745.1906642001122,Menor que 55,Maior que 55,left-lower/right-greater,right,right,1,0.4601070999633521,None,,,,,,Relâmpago Marquin,10,2024-11-05_14h07.10.889,two-digit-number-comparison-task,2024.1.5,None,2024-11-05 14h07.21.816944 -0300,
68,greater,2,0,2,0,0,36,36,56,745.206342499936,,,,,,,,,,745.1911148000509,745.206342499936,745.206342499936,745.206342499936,747.2064100999851,747.2064100999851,747.8906084999908,Menor que 55,Maior que 55,left-lower/right-greater,right,right,1,0.6811722000129521,None,,,,,,Relâmpago Marquin,10,2024-11-05_14h07.10.889,two-digit-number-comparison-task,2024.1.5,None,2024-11-05 14h07.21.816944 -0300,
54,lower,2,0,2,0,0,37,37,43,747.9063293000218,,,,,,,,,,747.8910710001364,747.9063293000218,747.9063293000218,747.9063293000218,749.9065988000948,749.9065988000948,750.7406051999424,Menor que 55,Maior que 55,left-lower/right-greater,left,left,1,0.828030199976638,None,,,,,,Relâmpago Marquin,10,2024-11-05_14h07.10.889,two-digit-number-comparison-task,2024.1.5,None,2024-11-05 14h07.21.816944 -0300,
96,greater,2,0,2,0,0,38,38,84,750.755950700026,,,,,,,,,,750.7411768999882,750.755950700026,750.755950700026,750.755950700026,752.7561878999695,752.7561878999695,753.2737900000066,Menor que 55,Maior que 55,left-lower/right-greater,right,right,1,0.5149571998044848,None,,,,,,Relâmpago Marquin,10,2024-11-05_14h07.10.889,two-digit-number-comparison-task,2024.1.5,None,2024-11-05 14h07.21.816944 -0300,
53,lower,2,0,2,0,0,39,39,42,753.2892295001075,,,,,,,,,,753.2742149000987,753.2892295001075,753.2892295001075,753.2892295001075,755.2890993999317,755.2890993999317,755.7570668000262,Menor que 55,Maior que 55,left-lower/right-greater,left,left,1,0.4620172001887113,None,,,,,,Relâmpago Marquin,10,2024-11-05_14h07.10.889,two-digit-number-comparison-task,2024.1.5,None,2024-11-05 14h07.21.816944 -0300,
37,lower,2,0,2,0,0,40,40,26,755.7726187000517,,,,,,,,,,755.757479700027,755.7726187000517,755.7726187000517,755.7726187000517,757.772520700004,757.772520700004,758.2904837001115,Menor que 55,Maior que 55,left-lower/right-greater,left,left,1,0.506649199873209,None,,,,,,Relâmpago Marquin,10,2024-11-05_14h07.10.889,two-digit-number-comparison-task,2024.1.5,None,2024-11-05 14h07.21.816944 -0300,
87,greater,2,0,2,0,0,41,41,75,758.3056242999155,,,,,,,,,,758.2912049000151,758.3056242999155,758.3056242999155,758.3056242999155,760.3055718999822,760.3055718999822,760.7737789000385,Menor que 55,Maior que 55,left-lower/right-greater,right,right,1,0.4534571999683976,None,,,,,,Relâmpago Marquin,10,2024-11-05_14h07.10.889,two-digit-number-comparison-task,2024.1.5,None,2024-11-05 14h07.21.816944 -0300,
93,greater,2,0,2,0,0,42,42,81,760.7890646001324,,,,,,,,,,760.774378299946,760.7890646001324,760.7890646001324,760.7890646001324,762.7888438000809,762.7888438000809,763.3231101999991,Menor que 55,Maior que 55,left-lower/right-greater,right,right,1,0.5219699000008404,None,,,,,,Relâmpago Marquin,10,2024-11-05_14h07.10.889,two-digit-number-comparison-task,2024.1.5,None,2024-11-05 14h07.21.816944 -0300,
98,greater,2,0,2,0,0,43,43,86,763.3387758000754,,,,,,,,,,763.323577000061,763.3387758000754,763.3387758000754,763.3387758000754,765.3389997999184,765.3389997999184,765.7566351999994,Menor que 55,Maior que 55,left-lower/right-greater,right,right,1,0.40343809989281,None,,,,,,Relâmpago Marquin,10,2024-11-05_14h07.10.889,two-digit-number-comparison-task,2024.1.5,None,2024-11-05 14h07.21.816944 -0300,
62,greater,2,0,2,0,0,44,44,50,765.7723958001006,,,,,,,,,,765.7570593999699,765.7723958001006,765.7723958001006,765.7723958001006,767.7721808999777,767.7721808999777,768.523223400116,Menor que 55,Maior que 55,left-lower/right-greater,right,right,1,0.747052000137046,None,,,,,,Relâmpago Marquin,10,2024-11-05_14h07.10.889,two-digit-number-comparison-task,2024.1.5,None,2024-11-05 14h07.21.816944 -0300,
84,greater,2,0,2,0,0,45,45,72,768.5386079000309,,,,,,,,,,768.5236488999799,768.5386079000309,768.5386079000309,768.5386079000309,770.5384909000713,770.5384909000713,771.2400309001096,Menor que 55,Maior que 55,left-lower/right-greater,right,right,1,0.6926328998524696,None,,,,,,Relâmpago Marquin,10,2024-11-05_14h07.10.889,two-digit-number-comparison-task,2024.1.5,None,2024-11-05 14h07.21.816944 -0300,
91,greater,2,0,2,0,0,46,46,79,771.255174400052,,,,,,,,,,771.24045510008,771.255174400052,771.255174400052,771.255174400052,773.2551089001354,773.2551089001354,773.7063084999099,Menor que 55,Maior que 55,left-lower/right-greater,right,right,1,0.44021790008991957,None,,,,,,Relâmpago Marquin,10,2024-11-05_14h07.10.889,two-digit-number-comparison-task,2024.1.5,None,2024-11-05 14h07.21.816944 -0300,
31,lower,2,0,2,0,0,47,47,20,773.7219593999907,,,,,,,,,,773.7067551999353,773.7219593999907,773.7219593999907,773.7219593999907,775.7216920999344,775.7216920999344,776.1227122000419,Menor que 55,Maior que 55,left-lower/right-greater,left,left,1,0.3972288998775184,None,,,,,,Relâmpago Marquin,10,2024-11-05_14h07.10.889,two-digit-number-comparison-task,2024.1.5,None,2024-11-05 14h07.21.816944 -0300,
17,lower,2,0,2,0,0,48,48,6,776.1380527999718,,,,,,,,,,776.1231297000777,776.1380527999718,776.1380527999718,776.1380527999718,778.1387145000044,778.1387145000044,778.7061014000792,Menor que 55,Maior que 55,left-lower/right-greater,left,left,1,0.5649302999954671,None,,,,,,Relâmpago Marquin,10,2024-11-05_14h07.10.889,two-digit-number-comparison-task,2024.1.5,None,2024-11-05 14h07.21.816944 -0300,
92,greater,2,0,2,0,0,49,49,80,778.7216320000589,,,,,,,,,,778.7065516000148,778.7216320000589,778.7216320000589,778.7216320000589,780.7217649000231,780.7217649000231,781.3225020999089,Menor que 55,Maior que 55,left-lower/right-greater,right,right,1,0.589249299839139,None,,,,,,Relâmpago Marquin,10,2024-11-05_14h07.10.889,two-digit-number-comparison-task,2024.1.5,None,2024-11-05 14h07.21.816944 -0300,
44,lower,2,0,2,0,0,50,50,33,781.3379339000676,,,,,,,,,,781.3230765000917,781.3379339000676,781.3379339000676,781.3379339000676,783.3379285000265,783.3379285000265,783.8223089999519,Menor que 55,Maior que 55,left-lower/right-greater,left,left,1,0.4771166001446545,None,,,,,,Relâmpago Marquin,10,2024-11-05_14h07.10.889,two-digit-number-comparison-task,2024.1.5,None,2024-11-05 14h07.21.816944 -0300,
50,lower,2,0,2,0,0,51,51,39,783.8377668999601,,,,,,,,,,783.8227840999607,783.8377668999601,783.8377668999601,783.8377668999601,785.8379758999217,785.8379758999217,786.3223254999612,Menor que 55,Maior que 55,left-lower/right-greater,left,right,0,0.4811780001036823,None,,,,,,Relâmpago Marquin,10,2024-11-05_14h07.10.889,two-digit-number-comparison-task,2024.1.5,None,2024-11-05 14h07.21.816944 -0300,
52,lower,2,0,2,0,0,52,52,41,786.3378743000794,,,,,,,,,,786.3227462000214,786.3378743000794,786.3378743000794,786.3378743000794,788.3374755999539,788.3374755999539,788.8723752999213,Menor que 55,Maior que 55,left-lower/right-greater,left,left,1,0.5256536998786032,None,,,,,,Relâmpago Marquin,10,2024-11-05_14h07.10.889,two-digit-number-comparison-task,2024.1.5,None,2024-11-05 14h07.21.816944 -0300,
40,lower,2,0,2,0,0,53,53,29,788.8876591001172,,,,,,,,,,788.8728100000881,788.8876591001172,788.8876591001172,788.8876591001172,790.8874671000522,790.8874671000522,791.3052845001221,Menor que 55,Maior que 55,left-lower/right-greater,left,left,1,0.41595120006240904,None,,,,,,Relâmpago Marquin,10,2024-11-05_14h07.10.889,two-digit-number-comparison-task,2024.1.5,None,2024-11-05 14h07.21.816944 -0300,
69,greater,2,0,2,0,0,54,54,57,791.3209216999821,,,,,,,,,,791.3057136000134,791.3209216999821,791.3209216999821,791.3209216999821,793.320841900073,793.320841900073,793.7386187999509,Menor que 55,Maior que 55,left-lower/right-greater,right,right,1,0.41445529996417463,None,,,,,,Relâmpago Marquin,10,2024-11-05_14h07.10.889,two-digit-number-comparison-task,2024.1.5,None,2024-11-05 14h07.21.816944 -0300,
34,lower,2,0,2,0,0,55,55,23,793.7541797999293,,,,,,,,,,793.7390769999474,793.7541797999293,793.7541797999293,793.7541797999293,795.7540448999498,795.7540448999498,796.1715915000532,Menor que 55,Maior que 55,left-lower/right-greater,left,left,1,0.4048943999223411,None,,,,,,Relâmpago Marquin,10,2024-11-05_14h07.10.889,two-digit-number-comparison-task,2024.1.5,None,2024-11-05 14h07.21.816944 -0300,
97,greater,2,0,2,0,0,56,56,85,796.1871174001135,,,,,,,,,,796.1720817999449,796.1871174001135,796.1871174001135,796.1871174001135,798.1872248,798.1872248,798.638226600131,Menor que 55,Maior que 55,left-lower/right-greater,right,right,1,0.43587950011715293,None,,,,,,Relâmpago Marquin,10,2024-11-05_14h07.10.889,two-digit-number-comparison-task,2024.1.5,None,2024-11-05 14h07.21.816944 -0300,
21,lower,2,0,2,0,0,57,57,10,798.6536962999962,,,,,,,,,,798.6386522001121,798.6536962999962,798.6536962999962,798.6536962999962,800.6537649999373,800.6537649999373,801.0717857999261,Menor que 55,Maior que 55,left-lower/right-greater,left,left,1,0.4013226998504251,None,,,,,,Relâmpago Marquin,10,2024-11-05_14h07.10.889,two-digit-number-comparison-task,2024.1.5,None,2024-11-05 14h07.21.816944 -0300,
99,greater,2,0,2,0,0,58,58,87,801.0870258000214,,,,,,,,,,801.0725034000352,801.0870258000214,801.0870258000214,801.0870258000214,803.0869962999132,803.0869962999132,803.5381829000544,Menor que 55,Maior que 55,left-lower/right-greater,right,right,1,0.44891300005838275,None,,,,,,Relâmpago Marquin,10,2024-11-05_14h07.10.889,two-digit-number-comparison-task,2024.1.5,None,2024-11-05 14h07.21.816944 -0300,
43,lower,2,0,2,0,0,59,59,32,803.5534264999442,,,,,,,,,,803.538590000011,803.5534264999442,803.5534264999442,803.5534264999442,805.5534272000659,805.5534272000659,806.0712727000937,Menor que 55,Maior que 55,left-lower/right-greater,left,left,1,0.5101504998747259,None,,,,,,Relâmpago Marquin,10,2024-11-05_14h07.10.889,two-digit-number-comparison-task,2024.1.5,None,2024-11-05 14h07.21.816944 -0300,
13,lower,2,0,2,0,0,60,60,2,806.0868949000724,,,,,,,,,,806.071749900002,806.0868949000724,806.0868949000724,806.0868949000724,808.0866851001047,808.0866851001047,808.5043737001251,Menor que 55,Maior que 55,left-lower/right-greater,left,left,1,0.4014597001951188,None,,,,,,Relâmpago Marquin,10,2024-11-05_14h07.10.889,two-digit-number-comparison-task,2024.1.5,None,2024-11-05 14h07.21.816944 -0300,
32,lower,2,0,2,0,0,61,61,21,808.519920800114,,,,,,,,,,808.5047770999372,808.519920800114,808.519920800114,808.519920800114,810.5198174000252,810.5198174000252,810.9043179000728,Menor que 55,Maior que 55,left-lower/right-greater,left,left,1,0.37538839993067086,None,,,,,,Relâmpago Marquin,10,2024-11-05_14h07.10.889,two-digit-number-comparison-task,2024.1.5,None,2024-11-05 14h07.21.816944 -0300,
64,greater,2,0,2,0,0,62,62,52,810.919869299978,,,,,,,,,,810.9048194999341,810.919869299978,810.919869299978,810.919869299978,812.9199188000057,812.9199188000057,813.3875909000635,Menor que 55,Maior que 55,left-lower/right-greater,right,right,1,0.45541290007531643,None,,,,,,Relâmpago Marquin,10,2024-11-05_14h07.10.889,two-digit-number-comparison-task,2024.1.5,None,2024-11-05 14h07.21.816944 -0300,
73,greater,2,0,2,0,0,63,63,61,813.4029709000606,,,,,,,,,,813.3880153999198,813.4029709000606,813.4029709000606,813.4029709000606,815.4029371999204,815.4029371999204,815.8707117000595,Menor que 55,Maior que 55,left-lower/right-greater,right,right,1,0.45173349999822676,None,,,,,,Relâmpago Marquin,10,2024-11-05_14h07.10.889,two-digit-number-comparison-task,2024.1.5,None,2024-11-05 14h07.21.816944 -0300,
81,greater,2,0,2,0,0,64,64,69,815.8864366000053,,,,,,,,,,815.871184800053,815.8864366000053,815.8864366000053,815.8864366000053,817.8864893000573,817.8864893000573,818.3538144999184,Menor que 55,Maior que 55,left-lower/right-greater,right,right,1,0.4559466999489814,None,,,,,,Relâmpago Marquin,10,2024-11-05_14h07.10.889,two-digit-number-comparison-task,2024.1.5,None,2024-11-05 14h07.21.816944 -0300,
38,lower,2,0,2,0,0,65,65,27,818.3696047000121,,,,,,,,,,818.3543895999901,818.3696047000121,818.3696047000121,818.3696047000121,820.3694231999107,820.3694231999107,820.8045107000507,Menor que 55,Maior que 55,left-lower/right-greater,left,left,1,0.4292510999366641,None,,,,,,Relâmpago Marquin,10,2024-11-05_14h07.10.889,two-digit-number-comparison-task,2024.1.5,None,2024-11-05 14h07.21.816944 -0300,
39,lower,2,0,2,0,0,66,66,28,820.8194345999509,,,,,,,,,,820.804952400038,820.8194345999509,820.8194345999509,820.8194345999509,822.8194548001047,822.8194548001047,823.220302999951,Menor que 55,Maior que 55,left-lower/right-greater,left,left,1,0.39618530008010566,None,,,,,,Relâmpago Marquin,10,2024-11-05_14h07.10.889,two-digit-number-comparison-task,2024.1.5,None,2024-11-05 14h07.21.816944 -0300,
30,lower,2,0,2,0,0,67,67,19,823.2360243999865,,,,,,,,,,823.22074229992,823.2360243999865,823.2360243999865,823.2360243999865,825.2358528000768,825.2358528000768,825.7703412999399,Menor que 55,Maior que 55,left-lower/right-greater,left,left,1,0.5234982999972999,None,,,,,,Relâmpago Marquin,10,2024-11-05_14h07.10.889,two-digit-number-comparison-task,2024.1.5,None,2024-11-05 14h07.21.816944 -0300,
