target_number,condition,blocks.thisRepN,blocks.thisTrialN,blocks.thisN,blocks.thisIndex,trials.thisRepN,trials.thisTrialN,trials.thisN,trials.thisIndex,thisRow.t,notes,welcome.started,welcome_msg.started,welcome_resp.started,welcome.stopped,instruction.started,instr_msg.started,instr_resp.started,instruction.stopped,trial.started,alternatives.started,left_alt.started,right_alt.started,number.started,key_resp.started,trial.stopped,left_msg,right_msg,button_condition,corr,key_resp.keys,key_resp.corr,key_resp.rt,key_resp.duration,rest.started,rest_prompt.started,rest_clock.started,rest_resp.started,rest.stopped,thanks.started,thanks_prompt.started,thanks_spacebar.started,thanks_resp.started,thanks.stopped,session_duration,Nome Completo,total_blocks,date,expName,psychopyVersion,frameRate,expStart,
,,,,,,,,,,,,0.01224880013614893,0.056321100099012256,0.056321100099012256,12.18476240010932,,,,,,,,,,,,,,,,,,,,,,,,,,,,,,,Relâmpago Marquin,10,2024-11-05_19h38.54.917,two-digit-number-comparison-task,2024.1.5,None,2024-11-05 19h39.09.627264 -0300,
82,greater,0,0,0,0,0,0,0,70,14.022969800047576,,,,,,12.186528800055385,12.23901390004903,12.23901390004903,13.912325700046495,13.932473700027913,14.022969800047576,14.022969800047576,14.022969800047576,15.92367980000563,15.92367980000563,16.397373100044206,Menor que 55,Maior que 55,left-lower/right-greater,right,right,1,0.4654411000665277,None,,,,,,,,,,,,Relâmpago Marquin,10,2024-11-05_19h38.54.917,two-digit-number-comparison-task,2024.1.5,None,2024-11-05 19h39.09.627264 -0300,
51,lower,0,0,0,0,0,1,1,40,16.42251650011167,,,,,,,,,,16.400634800083935,16.42251650011167,16.42251650011167,16.42251650011167,18.406637500040233,18.406637500040233,18.893526900094002,Menor que 55,Maior que 55,left-lower/right-greater,left,left,1,0.47054950008168817,None,,,,,,,,,,,,Relâmpago Marquin,10,2024-11-05_19h38.54.917,two-digit-number-comparison-task,2024.1.5,None,2024-11-05 19h39.09.627264 -0300,
74,greater,0,0,0,0,0,2,2,62,18.906407800037414,,,,,,,,,,18.89395090006292,18.906407800037414,18.906407800037414,18.906407800037414,20.90634350012988,20.90634350012988,21.31011680001393,Menor que 55,Maior que 55,left-lower/right-greater,right,right,1,0.3864925999660045,None,,,,,,,,,,,,Relâmpago Marquin,10,2024-11-05_19h38.54.917,two-digit-number-comparison-task,2024.1.5,None,2024-11-05 19h39.09.627264 -0300,
45,lower,0,0,0,0,0,3,3,34,21.323009700048715,,,,,,,,,,21.310574700124562,21.323009700048715,21.323009700048715,21.323009700048715,23.323592400178313,23.323592400178313,23.763051300076768,Menor que 55,Maior que 55,left-lower/right-greater,left,left,1,0.43350309995003045,None,,,,,,,,,,,,Relâmpago Marquin,10,2024-11-05_19h38.54.917,two-digit-number-comparison-task,2024.1.5,None,2024-11-05 19h39.09.627264 -0300,
83,greater,0,0,0,0,0,4,4,71,23.788351600058377,,,,,,,,,,23.763752800179645,23.788351600058377,23.788351600058377,23.788351600058377,25.773232200182974,25.773232200182974,26.143950800178573,Menor que 55,Maior que 55,left-lower/right-greater,right,right,1,0.3677926000673324,None,,,,,,,,,,,,Relâmpago Marquin,10,2024-11-05_19h38.54.917,two-digit-number-comparison-task,2024.1.5,None,2024-11-05 19h39.09.627264 -0300,
41,lower,0,0,0,0,0,5,5,30,26.156455400167033,,,,,,,,,,26.144410600187257,26.156455400167033,26.156455400167033,26.156455400167033,28.156312900129706,28.156312900129706,28.693025100044906,Menor que 55,Maior que 55,left-lower/right-greater,left,left,1,0.5295805998612195,None,,,,,,,,,,,,Relâmpago Marquin,10,2024-11-05_19h38.54.917,two-digit-number-comparison-task,2024.1.5,None,2024-11-05 19h39.09.627264 -0300,
60,greater,0,0,0,0,0,6,6,48,28.706132300198078,,,,,,,,,,28.69345420016907,28.706132300198078,28.706132300198078,28.706132300198078,30.706208400195464,30.706208400195464,31.04279109998606,Menor que 55,Maior que 55,left-lower/right-greater,right,right,1,0.33103330014273524,None,,,,,,,,,,,,Relâmpago Marquin,10,2024-11-05_19h38.54.917,two-digit-number-comparison-task,2024.1.5,None,2024-11-05 19h39.09.627264 -0300,
15,lower,0,0,0,0,0,7,7,4,31.056270000059158,,,,,,,,,,31.043217400088906,31.056270000059158,31.056270000059158,31.056270000059158,33.056470800191164,33.056470800191164,33.476466700201854,Menor que 55,Maior que 55,left-lower/right-greater,left,left,1,0.4044694001786411,None,,,,,,,,,,,,Relâmpago Marquin,10,2024-11-05_19h38.54.917,two-digit-number-comparison-task,2024.1.5,None,2024-11-05 19h39.09.627264 -0300,
23,lower,0,0,0,0,0,8,8,12,33.4892414000351,,,,,,,,,,33.47689300007187,33.4892414000351,33.4892414000351,33.4892414000351,35.48927730019204,35.48927730019204,35.959390100091696,Menor que 55,Maior que 55,left-lower/right-greater,left,left,1,0.4600752000696957,None,,,,,,,,,,,,Relâmpago Marquin,10,2024-11-05_19h38.54.917,two-digit-number-comparison-task,2024.1.5,None,2024-11-05 19h39.09.627264 -0300,
62,greater,0,0,0,0,0,9,9,50,35.972837100038305,,,,,,,,,,35.95991770015098,35.972837100038305,35.972837100038305,35.972837100038305,37.97274240013212,37.97274240013212,38.41283380007371,Menor que 55,Maior que 55,left-lower/right-greater,right,right,1,0.43268380011431873,None,,,,,,,,,,,,Relâmpago Marquin,10,2024-11-05_19h38.54.917,two-digit-number-comparison-task,2024.1.5,None,2024-11-05 19h39.09.627264 -0300,
85,greater,0,0,0,0,0,10,10,73,38.438180200057104,,,,,,,,,,38.41364870010875,38.438180200057104,38.438180200057104,38.438180200057104,40.42251740000211,40.42251740000211,40.809343700064346,Menor que 55,Maior que 55,left-lower/right-greater,right,right,1,0.3831030000001192,None,,,,,,,,,,,,Relâmpago Marquin,10,2024-11-05_19h38.54.917,two-digit-number-comparison-task,2024.1.5,None,2024-11-05 19h39.09.627264 -0300,
32,lower,0,0,0,0,0,11,11,21,40.822752400068566,,,,,,,,,,40.809864700073376,40.822752400068566,40.822752400068566,40.822752400068566,42.82237390009686,42.82237390009686,43.192844400182366,Menor que 55,Maior que 55,left-lower/right-greater,left,left,1,0.3675637000706047,None,,,,,,,,,,,,Relâmpago Marquin,10,2024-11-05_19h38.54.917,two-digit-number-comparison-task,2024.1.5,None,2024-11-05 19h39.09.627264 -0300,
86,greater,0,0,0,0,0,12,12,74,43.205607400042936,,,,,,,,,,43.19327690009959,43.205607400042936,43.205607400042936,43.205607400042936,45.20564890000969,45.20564890000969,45.69188709999435,Menor que 55,Maior que 55,left-lower/right-greater,right,right,1,0.47195799998007715,None,,,,,,,,,,,,Relâmpago Marquin,10,2024-11-05_19h38.54.917,two-digit-number-comparison-task,2024.1.5,None,2024-11-05 19h39.09.627264 -0300,
27,lower,0,0,0,0,0,13,13,16,45.70543620013632,,,,,,,,,,45.69235430005938,45.70543620013632,45.70543620013632,45.70543620013632,47.70566390012391,47.70566390012391,48.04242549999617,Menor que 55,Maior que 55,left-lower/right-greater,left,left,1,0.332068599993363,None,,,,,,,,,,,,Relâmpago Marquin,10,2024-11-05_19h38.54.917,two-digit-number-comparison-task,2024.1.5,None,2024-11-05 19h39.09.627264 -0300,
94,greater,0,0,0,0,0,14,14,82,48.05524810007773,,,,,,,,,,48.04284910019487,48.05524810007773,48.05524810007773,48.05524810007773,50.055635900003836,50.055635900003836,50.478493000147864,Menor que 55,Maior que 55,left-lower/right-greater,right,right,1,0.4058163999579847,None,,,,,,,,,,,,Relâmpago Marquin,10,2024-11-05_19h38.54.917,two-digit-number-comparison-task,2024.1.5,None,2024-11-05 19h39.09.627264 -0300,
81,greater,0,0,0,0,0,15,15,69,50.48904430004768,,,,,,,,,,50.47906780010089,50.48904430004768,50.48904430004768,50.48904430004768,52.488882600096986,52.488882600096986,52.95808500004932,Menor que 55,Maior que 55,left-lower/right-greater,right,right,1,0.46167790004983544,None,,,,,,,,,,,,Relâmpago Marquin,10,2024-11-05_19h38.54.917,two-digit-number-comparison-task,2024.1.5,None,2024-11-05 19h39.09.627264 -0300,
64,greater,0,0,0,0,0,16,16,52,52.97192839998752,,,,,,,,,,52.958530500065535,52.97192839998752,52.97192839998752,52.97192839998752,54.971965700155124,54.971965700155124,55.47567170020193,Menor que 55,Maior que 55,left-lower/right-greater,right,right,1,0.4983681000303477,None,,,,,,,,,,,,Relâmpago Marquin,10,2024-11-05_19h38.54.917,two-digit-number-comparison-task,2024.1.5,None,2024-11-05 19h39.09.627264 -0300,
44,lower,0,0,0,0,0,17,17,33,55.48846330004744,,,,,,,,,,55.476119900122285,55.48846330004744,55.48846330004744,55.48846330004744,57.490165600087494,57.490165600087494,57.958118400070816,Menor que 55,Maior que 55,left-lower/right-greater,left,left,1,0.4595631000120193,None,,,,,,,,,,,,Relâmpago Marquin,10,2024-11-05_19h38.54.917,two-digit-number-comparison-task,2024.1.5,None,2024-11-05 19h39.09.627264 -0300,
80,greater,0,0,0,0,0,18,18,68,57.971559799974784,,,,,,,,,,57.95856340019964,57.971559799974784,57.971559799974784,57.971559799974784,59.971606200095266,59.971606200095266,60.341555500170216,Menor que 55,Maior que 55,left-lower/right-greater,right,right,1,0.36252839979715645,None,,,,,,,,,,,,Relâmpago Marquin,10,2024-11-05_19h38.54.917,two-digit-number-comparison-task,2024.1.5,None,2024-11-05 19h39.09.627264 -0300,
68,greater,0,0,0,0,0,19,19,56,60.355161000043154,,,,,,,,,,60.34200610010885,60.355161000043154,60.355161000043154,60.355161000043154,62.35487830010243,62.35487830010243,62.9918975001201,Menor que 55,Maior que 55,left-lower/right-greater,right,right,1,0.6339340000413358,None,,,,,,,,,,,,Relâmpago Marquin,10,2024-11-05_19h38.54.917,two-digit-number-comparison-task,2024.1.5,None,2024-11-05 19h39.09.627264 -0300,
46,lower,0,0,0,0,0,20,20,35,63.00492430012673,,,,,,,,,,62.992324399994686,63.00492430012673,63.00492430012673,63.00492430012673,65.00475800014101,65.00475800014101,65.64131260011345,Menor que 55,Maior que 55,left-lower/right-greater,left,left,1,0.6240265001542866,None,,,,,,,,,,,,Relâmpago Marquin,10,2024-11-05_19h38.54.917,two-digit-number-comparison-task,2024.1.5,None,2024-11-05 19h39.09.627264 -0300,
70,greater,0,0,0,0,0,21,21,58,65.65486740018241,,,,,,,,,,65.64173490018584,65.65486740018241,65.65486740018241,65.65486740018241,67.65487810014747,67.65487810014747,68.10876920004375,Menor que 55,Maior que 55,left-lower/right-greater,right,right,1,0.4398324000649154,None,,,,,,,,,,,,Relâmpago Marquin,10,2024-11-05_19h38.54.917,two-digit-number-comparison-task,2024.1.5,None,2024-11-05 19h39.09.627264 -0300,
54,lower,0,0,0,0,0,22,22,43,68.12122660013847,,,,,,,,,,68.10919410013594,68.12122660013847,68.12122660013847,68.12122660013847,70.12131040007807,70.12131040007807,70.70779470005073,Menor que 55,Maior que 55,left-lower/right-greater,left,left,1,0.5722429000306875,None,,,,,,,,,,,,Relâmpago Marquin,10,2024-11-05_19h38.54.917,two-digit-number-comparison-task,2024.1.5,None,2024-11-05 19h39.09.627264 -0300,
93,greater,0,0,0,0,0,23,23,81,70.72112060012296,,,,,,,,,,70.70822100015357,70.72112060012296,70.72112060012296,70.72112060012296,72.72061060019769,72.72061060019769,73.10730590019375,Menor que 55,Maior que 55,left-lower/right-greater,right,right,1,0.3728775999043137,None,,,,,,,,,,,,Relâmpago Marquin,10,2024-11-05_19h38.54.917,two-digit-number-comparison-task,2024.1.5,None,2024-11-05 19h39.09.627264 -0300,
53,lower,0,0,0,0,0,24,24,42,73.12073200009763,,,,,,,,,,73.10775330010802,73.12073200009763,73.12073200009763,73.12073200009763,75.12081270013005,75.12081270013005,75.7920397000853,Menor que 55,Maior que 55,left-lower/right-greater,left,left,1,0.6607822000514716,None,,,,,,,,,,,,Relâmpago Marquin,10,2024-11-05_19h38.54.917,two-digit-number-comparison-task,2024.1.5,None,2024-11-05 19h39.09.627264 -0300,
19,lower,0,0,0,0,0,25,25,8,75.80419220007025,,,,,,,,,,75.7925520001445,75.80419220007025,75.80419220007025,75.80419220007025,77.80417350004427,77.80417350004427,78.20738040003926,Menor que 55,Maior que 55,left-lower/right-greater,left,left,1,0.4005483998917043,None,,,,,,,,,,,,Relâmpago Marquin,10,2024-11-05_19h38.54.917,two-digit-number-comparison-task,2024.1.5,None,2024-11-05 19h39.09.627264 -0300,
29,lower,0,0,0,0,0,26,26,18,78.22054410004057,,,,,,,,,,78.20781520009041,78.22054410004057,78.22054410004057,78.22054410004057,80.22034420003183,80.22034420003183,80.64044860005379,Menor que 55,Maior que 55,left-lower/right-greater,left,left,1,0.4163257998879999,None,,,,,,,,,,,,Relâmpago Marquin,10,2024-11-05_19h38.54.917,two-digit-number-comparison-task,2024.1.5,None,2024-11-05 19h39.09.627264 -0300,
75,greater,0,0,0,0,0,27,27,63,80.65388350002468,,,,,,,,,,80.64087410015054,80.65388350002468,80.65388350002468,80.65388350002468,82.65386640001088,82.65386640001088,83.02365149999969,Menor que 55,Maior que 55,left-lower/right-greater,right,right,1,0.36005200003273785,None,,,,,,,,,,,,Relâmpago Marquin,10,2024-11-05_19h38.54.917,two-digit-number-comparison-task,2024.1.5,None,2024-11-05 19h39.09.627264 -0300,
26,lower,0,0,0,0,0,28,28,15,83.03686009999365,,,,,,,,,,83.0240970000159,83.03686009999365,83.03686009999365,83.03686009999365,85.03680340014398,85.03680340014398,85.42365650017746,Menor que 55,Maior que 55,left-lower/right-greater,left,left,1,0.38453350006602705,None,,,,,,,,,,,,Relâmpago Marquin,10,2024-11-05_19h38.54.917,two-digit-number-comparison-task,2024.1.5,None,2024-11-05 19h39.09.627264 -0300,
20,lower,0,0,0,0,0,29,29,9,85.43691599997692,,,,,,,,,,85.42411790019833,85.43691599997692,85.43691599997692,85.43691599997692,87.43713870015927,87.43713870015927,87.82376480009407,Menor que 55,Maior que 55,left-lower/right-greater,left,left,1,0.3768823000136763,None,,,,,,,,,,,,Relâmpago Marquin,10,2024-11-05_19h38.54.917,two-digit-number-comparison-task,2024.1.5,None,2024-11-05 19h39.09.627264 -0300,
24,lower,0,0,0,0,0,30,30,13,87.83674950012937,,,,,,,,,,87.8242172000464,87.83674950012937,87.83674950012937,87.83674950012937,89.83672450017184,89.83672450017184,90.2401485000737,Menor que 55,Maior que 55,left-lower/right-greater,left,left,1,0.4003643998876214,None,,,,,,,,,,,,Relâmpago Marquin,10,2024-11-05_19h38.54.917,two-digit-number-comparison-task,2024.1.5,None,2024-11-05 19h39.09.627264 -0300,
99,greater,0,0,0,0,0,31,31,87,90.25327380001545,,,,,,,,,,90.24058280000463,90.25327380001545,90.25327380001545,90.25327380001545,92.25370720005594,92.25370720005594,92.77285070018843,Menor que 55,Maior que 55,left-lower/right-greater,right,right,1,0.5038821999914944,None,,,,,,,,,,,,Relâmpago Marquin,10,2024-11-05_19h38.54.917,two-digit-number-comparison-task,2024.1.5,None,2024-11-05 19h39.09.627264 -0300,
38,lower,0,0,0,0,0,32,32,27,92.78649800014682,,,,,,,,,,92.77327340003103,92.78649800014682,92.78649800014682,92.78649800014682,94.78649269999005,94.78649269999005,95.20673830015585,Menor que 55,Maior que 55,left-lower/right-greater,left,left,1,0.41859279992058873,None,,,,,,,,,,,,Relâmpago Marquin,10,2024-11-05_19h38.54.917,two-digit-number-comparison-task,2024.1.5,None,2024-11-05 19h39.09.627264 -0300,
49,lower,0,0,0,0,0,33,33,38,95.2197516001761,,,,,,,,,,95.20719290012494,95.2197516001761,95.2197516001761,95.2197516001761,97.21958430018276,97.21958430018276,97.71088120015338,Menor que 55,Maior que 55,left-lower/right-greater,left,left,1,0.4735298999585211,None,,,,,,,,,,,,Relâmpago Marquin,10,2024-11-05_19h38.54.917,two-digit-number-comparison-task,2024.1.5,None,2024-11-05 19h39.09.627264 -0300,
56,greater,0,0,0,0,0,34,34,44,97.73516030004248,,,,,,,,,,97.71185510000214,97.73516030004248,97.73516030004248,97.73516030004248,99.71948540001176,99.71948540001176,100.23957700002939,Menor que 55,Maior que 55,left-lower/right-greater,right,right,1,0.5102188000455499,None,,,,,,,,,,,,Relâmpago Marquin,10,2024-11-05_19h38.54.917,two-digit-number-comparison-task,2024.1.5,None,2024-11-05 19h39.09.627264 -0300,
69,greater,0,0,0,0,0,35,35,57,100.25296180020086,,,,,,,,,,100.240015800111,100.25296180020086,100.25296180020086,100.25296180020086,102.25293459999375,102.25293459999375,102.82273280015215,Menor que 55,Maior que 55,left-lower/right-greater,right,right,1,0.5615793000906706,None,,,,,,,,,,,,Relâmpago Marquin,10,2024-11-05_19h38.54.917,two-digit-number-comparison-task,2024.1.5,None,2024-11-05 19h39.09.627264 -0300,
22,lower,0,0,0,0,0,36,36,11,102.83598039997742,,,,,,,,,,102.82317620003596,102.83598039997742,102.83598039997742,102.83598039997742,104.83610720001161,104.83610720001161,105.27246800018474,Menor que 55,Maior que 55,left-lower/right-greater,left,left,1,0.4327136001084,None,,,,,,,,,,,,Relâmpago Marquin,10,2024-11-05_19h38.54.917,two-digit-number-comparison-task,2024.1.5,None,2024-11-05 19h39.09.627264 -0300,
37,lower,0,0,0,0,0,37,37,26,105.28573100012727,,,,,,,,,,105.27290600002743,105.28573100012727,105.28573100012727,105.28573100012727,107.2856489000842,107.2856489000842,107.70594500005245,Menor que 55,Maior que 55,left-lower/right-greater,left,left,1,0.4088573001790792,None,,,,,,,,,,,,Relâmpago Marquin,10,2024-11-05_19h38.54.917,two-digit-number-comparison-task,2024.1.5,None,2024-11-05 19h39.09.627264 -0300,
43,lower,0,0,0,0,0,38,38,32,107.71908970014192,,,,,,,,,,107.706364300102,107.71908970014192,107.71908970014192,107.71908970014192,109.71893219999038,109.71893219999038,110.10624880017713,Menor que 55,Maior que 55,left-lower/right-greater,left,left,1,0.3830502999480814,None,,,,,,,,,,,,Relâmpago Marquin,10,2024-11-05_19h38.54.917,two-digit-number-comparison-task,2024.1.5,None,2024-11-05 19h39.09.627264 -0300,
52,lower,0,0,0,0,0,39,39,41,110.11914730002172,,,,,,,,,,110.10668010008521,110.11914730002172,110.11914730002172,110.11914730002172,112.11914140009321,112.11914140009321,112.67256760015152,Menor que 55,Maior que 55,left-lower/right-greater,left,left,1,0.5496346999425441,None,,,,,,,,,,,,Relâmpago Marquin,10,2024-11-05_19h38.54.917,two-digit-number-comparison-task,2024.1.5,None,2024-11-05 19h39.09.627264 -0300,
98,greater,0,0,0,0,0,40,40,86,112.68561350018717,,,,,,,,,,112.6729908999987,112.68561350018717,112.68561350018717,112.68561350018717,114.68557500001043,114.68557500001043,115.08914740011096,Menor que 55,Maior que 55,left-lower/right-greater,right,right,1,0.39988619997166097,None,,,,,,,,,,,,Relâmpago Marquin,10,2024-11-05_19h38.54.917,two-digit-number-comparison-task,2024.1.5,None,2024-11-05 19h39.09.627264 -0300,
92,greater,0,0,0,0,0,41,41,80,115.10235970001668,,,,,,,,,,115.08959360001609,115.10235970001668,115.10235970001668,115.10235970001668,117.10205040010624,117.10205040010624,117.52189110009931,Menor que 55,Maior que 55,left-lower/right-greater,right,right,1,0.41541210003197193,None,,,,,,,,,,,,Relâmpago Marquin,10,2024-11-05_19h38.54.917,two-digit-number-comparison-task,2024.1.5,None,2024-11-05 19h39.09.627264 -0300,
58,greater,0,0,0,0,0,42,42,46,117.53527250001207,,,,,,,,,,117.52231070003472,117.53527250001207,117.53527250001207,117.53527250001207,119.53530100011267,119.53530100011267,120.15484780003317,Menor que 55,Maior que 55,left-lower/right-greater,right,right,1,0.6059787000995129,None,,,,,,,,,,,,Relâmpago Marquin,10,2024-11-05_19h38.54.917,two-digit-number-comparison-task,2024.1.5,None,2024-11-05 19h39.09.627264 -0300,
72,greater,0,0,0,0,0,43,43,60,120.1684865001589,,,,,,,,,,120.15528790000826,120.1684865001589,120.1684865001589,120.1684865001589,122.16853200015612,122.16853200015612,122.60762919997796,Menor que 55,Maior que 55,left-lower/right-greater,right,right,1,0.4365823999978602,None,,,,,,,,,,,,Relâmpago Marquin,10,2024-11-05_19h38.54.917,two-digit-number-comparison-task,2024.1.5,None,2024-11-05 19h39.09.627264 -0300,
87,greater,0,0,0,0,0,44,44,75,122.63395540020429,,,,,,,,,,122.60841920017265,122.63395540020429,122.63395540020429,122.63395540020429,124.61837310018018,124.61837310018018,125.0554355001077,Menor que 55,Maior que 55,left-lower/right-greater,right,right,1,0.4263393001165241,None,,,,,,,,,,,,Relâmpago Marquin,10,2024-11-05_19h38.54.917,two-digit-number-comparison-task,2024.1.5,None,2024-11-05 19h39.09.627264 -0300,
31,lower,0,0,0,0,0,45,45,20,125.06833979999647,,,,,,,,,,125.05585890007205,125.06833979999647,125.06833979999647,125.06833979999647,127.06827550008893,127.06827550008893,127.5223312000744,Menor que 55,Maior que 55,left-lower/right-greater,left,left,1,0.4487076001241803,None,,,,,,,,,,,,Relâmpago Marquin,10,2024-11-05_19h38.54.917,two-digit-number-comparison-task,2024.1.5,None,2024-11-05 19h39.09.627264 -0300,
65,greater,0,0,0,0,0,46,46,53,127.53484290000051,,,,,,,,,,127.52278020000085,127.53484290000051,127.53484290000051,127.53484290000051,129.53480530017987,129.53480530017987,130.03832970000803,Menor que 55,Maior que 55,left-lower/right-greater,right,right,1,0.48626140016131103,None,,,,,,,,,,,,Relâmpago Marquin,10,2024-11-05_19h38.54.917,two-digit-number-comparison-task,2024.1.5,None,2024-11-05 19h39.09.627264 -0300,
16,lower,0,0,0,0,0,47,47,5,130.05170840001665,,,,,,,,,,130.03880780003965,130.05170840001665,130.05170840001665,130.05170840001665,132.05147940013558,132.05147940013558,132.4550901001785,Menor que 55,Maior que 55,left-lower/right-greater,left,left,1,0.40132670011371374,None,,,,,,,,,,,,Relâmpago Marquin,10,2024-11-05_19h38.54.917,two-digit-number-comparison-task,2024.1.5,None,2024-11-05 19h39.09.627264 -0300,
59,greater,0,0,0,0,0,48,48,47,132.46796869998798,,,,,,,,,,132.45552020007744,132.46796869998798,132.46796869998798,132.46796869998798,134.46783219999634,134.46783219999634,134.9379689001944,Menor que 55,Maior que 55,left-lower/right-greater,right,right,1,0.46593630011193454,None,,,,,,,,,,,,Relâmpago Marquin,10,2024-11-05_19h38.54.917,two-digit-number-comparison-task,2024.1.5,None,2024-11-05 19h39.09.627264 -0300,
48,lower,0,0,0,0,0,49,49,37,134.9516392000951,,,,,,,,,,134.93839500006288,134.9516392000951,134.9516392000951,134.9516392000951,136.9515222001355,136.9515222001355,137.62088280008174,Menor que 55,Maior que 55,left-lower/right-greater,left,left,1,0.6617908999323845,None,,,,,,,,,,,,Relâmpago Marquin,10,2024-11-05_19h38.54.917,two-digit-number-comparison-task,2024.1.5,None,2024-11-05 19h39.09.627264 -0300,
14,lower,0,0,0,0,0,50,50,3,137.63432479999028,,,,,,,,,,137.62129750009626,137.63432479999028,137.63432479999028,137.63432479999028,139.63457240001298,139.63457240001298,140.03829649998806,Menor que 55,Maior que 55,left-lower/right-greater,left,left,1,0.39398589986376464,None,,,,,,,,,,,,Relâmpago Marquin,10,2024-11-05_19h38.54.917,two-digit-number-comparison-task,2024.1.5,None,2024-11-05 19h39.09.627264 -0300,
66,greater,0,0,0,0,0,51,51,54,140.05096710007638,,,,,,,,,,140.03873530006967,140.05096710007638,140.05096710007638,140.05096710007638,142.05120920017362,142.05120920017362,142.45457220007665,Menor que 55,Maior que 55,left-lower/right-greater,right,right,1,0.3946316000074148,None,,,,,,,,,,,,Relâmpago Marquin,10,2024-11-05_19h38.54.917,two-digit-number-comparison-task,2024.1.5,None,2024-11-05 19h39.09.627264 -0300,
95,greater,0,0,0,0,0,52,52,83,142.46755739999935,,,,,,,,,,142.45499790017493,142.46755739999935,142.46755739999935,142.46755739999935,144.46728110010736,144.46728110010736,144.93756150011905,Menor que 55,Maior que 55,left-lower/right-greater,right,right,1,0.45828770007938147,None,,,,,,,,,,,,Relâmpago Marquin,10,2024-11-05_19h38.54.917,two-digit-number-comparison-task,2024.1.5,None,2024-11-05 19h39.09.627264 -0300,
88,greater,0,0,0,0,0,53,53,76,144.9506128001958,,,,,,,,,,144.93799430015497,144.9506128001958,144.9506128001958,144.9506128001958,146.95066309999675,146.95066309999675,147.37217350001447,Menor que 55,Maior que 55,left-lower/right-greater,right,right,1,0.40665190014988184,None,,,,,,,,,,,,Relâmpago Marquin,10,2024-11-05_19h38.54.917,two-digit-number-comparison-task,2024.1.5,None,2024-11-05 19h39.09.627264 -0300,
73,greater,0,0,0,0,0,54,54,61,147.38470580009744,,,,,,,,,,147.37281920015812,147.38470580009744,147.38470580009744,147.38470580009744,149.3840785000939,149.3840785000939,149.79000030015595,Menor que 55,Maior que 55,left-lower/right-greater,right,right,1,0.38846799987368286,None,,,,,,,,,,,,Relâmpago Marquin,10,2024-11-05_19h38.54.917,two-digit-number-comparison-task,2024.1.5,None,2024-11-05 19h39.09.627264 -0300,
39,lower,0,0,0,0,0,55,55,28,149.8160500000231,,,,,,,,,,149.79073460004292,149.8160500000231,149.8160500000231,149.8160500000231,151.80058530019596,151.80058530019596,152.2534714001231,Menor que 55,Maior que 55,left-lower/right-greater,left,left,1,0.4448931999504566,None,,,,,,,,,,,,Relâmpago Marquin,10,2024-11-05_19h38.54.917,two-digit-number-comparison-task,2024.1.5,None,2024-11-05 19h39.09.627264 -0300,
36,lower,0,0,0,0,0,56,56,25,152.26712430012412,,,,,,,,,,152.25389480008744,152.26712430012412,152.26712430012412,152.26712430012412,154.26672830013558,154.26672830013558,154.72014620015398,Menor que 55,Maior que 55,left-lower/right-greater,left,left,1,0.4425562999676913,None,,,,,,,,,,,,Relâmpago Marquin,10,2024-11-05_19h38.54.917,two-digit-number-comparison-task,2024.1.5,None,2024-11-05 19h39.09.627264 -0300,
28,lower,0,0,0,0,0,57,57,17,154.73363859998062,,,,,,,,,,154.72059669997543,154.73363859998062,154.73363859998062,154.73363859998062,156.73356060008518,156.73356060008518,157.15483580017462,Menor que 55,Maior que 55,left-lower/right-greater,left,left,1,0.4075728999450803,None,,,,,,,,,,,,Relâmpago Marquin,10,2024-11-05_19h38.54.917,two-digit-number-comparison-task,2024.1.5,None,2024-11-05 19h39.09.627264 -0300,
42,lower,0,0,0,0,0,58,58,31,157.1667437001597,,,,,,,,,,157.15528460009955,157.1667437001597,157.1667437001597,157.1667437001597,159.1670474000275,159.1670474000275,159.62048789998516,Menor que 55,Maior que 55,left-lower/right-greater,left,left,1,0.4472432001493871,None,,,,,,,,,,,,Relâmpago Marquin,10,2024-11-05_19h38.54.917,two-digit-number-comparison-task,2024.1.5,None,2024-11-05 19h39.09.627264 -0300,
11,lower,0,0,0,0,0,59,59,0,159.633627000032,,,,,,,,,,159.62092940020375,159.633627000032,159.633627000032,159.633627000032,161.63315840018913,161.63315840018913,162.0196342000272,Menor que 55,Maior que 55,left-lower/right-greater,left,left,1,0.3810255001299083,None,,,,,,,,,,,,Relâmpago Marquin,10,2024-11-05_19h38.54.917,two-digit-number-comparison-task,2024.1.5,None,2024-11-05 19h39.09.627264 -0300,
84,greater,0,0,0,0,0,60,60,72,162.03308870014735,,,,,,,,,,162.02011430007406,162.03308870014735,162.03308870014735,162.03308870014735,164.03326080017723,164.03326080017723,164.48641630006023,Menor que 55,Maior que 55,left-lower/right-greater,right,right,1,0.4451187998056412,None,,,,,,,,,,,,Relâmpago Marquin,10,2024-11-05_19h38.54.917,two-digit-number-comparison-task,2024.1.5,None,2024-11-05 19h39.09.627264 -0300,
12,lower,0,0,0,0,0,61,61,1,164.4996249000542,,,,,,,,,,164.48686520010233,164.4996249000542,164.4996249000542,164.4996249000542,166.49966650013812,166.49966650013812,166.90319300000556,Menor que 55,Maior que 55,left-lower/right-greater,left,left,1,0.4011024001520127,None,,,,,,,,,,,,Relâmpago Marquin,10,2024-11-05_19h38.54.917,two-digit-number-comparison-task,2024.1.5,None,2024-11-05 19h39.09.627264 -0300,
79,greater,0,0,0,0,0,62,62,67,166.9162886000704,,,,,,,,,,166.90361959999427,166.9162886000704,166.9162886000704,166.9162886000704,168.91614540014416,168.91614540014416,169.4866611000616,Menor que 55,Maior que 55,left-lower/right-greater,right,right,1,0.5692328000441194,None,,,,,,,,,,,,Relâmpago Marquin,10,2024-11-05_19h38.54.917,two-digit-number-comparison-task,2024.1.5,None,2024-11-05 19h39.09.627264 -0300,
97,greater,0,0,0,0,0,63,63,85,169.4994513001293,,,,,,,,,,169.48711120011285,169.4994513001293,169.4994513001293,169.4994513001293,171.49989249999635,171.49989249999635,171.93676740000956,Menor que 55,Maior que 55,left-lower/right-greater,right,right,1,0.4335107998922467,None,,,,,,,,,,,,Relâmpago Marquin,10,2024-11-05_19h38.54.917,two-digit-number-comparison-task,2024.1.5,None,2024-11-05 19h39.09.627264 -0300,
76,greater,0,0,0,0,0,64,64,64,171.9494457000401,,,,,,,,,,171.93722020019777,171.9494457000401,171.9494457000401,171.9494457000401,173.94902499997988,173.94902499997988,174.45265730004758,Menor que 55,Maior que 55,left-lower/right-greater,right,right,1,0.487886399962008,None,,,,,,,,,,,,Relâmpago Marquin,10,2024-11-05_19h38.54.917,two-digit-number-comparison-task,2024.1.5,None,2024-11-05 19h39.09.627264 -0300,
50,lower,0,0,0,0,0,65,65,39,174.4661457000766,,,,,,,,,,174.45315439999104,174.4661457000766,174.4661457000766,174.4661457000766,176.4655320001766,176.4655320001766,176.96949450019747,Menor que 55,Maior que 55,left-lower/right-greater,left,left,1,0.4994367000181228,None,,,,,,,,,,,,Relâmpago Marquin,10,2024-11-05_19h38.54.917,two-digit-number-comparison-task,2024.1.5,None,2024-11-05 19h39.09.627264 -0300,
63,greater,0,0,0,0,0,66,66,51,176.98227580008097,,,,,,,,,,176.96994580002502,176.98227580008097,176.98227580008097,176.98227580008097,178.98219560016878,178.98219560016878,179.40287330001593,Menor que 55,Maior que 55,left-lower/right-greater,right,right,1,0.41434759995900095,None,,,,,,,,,,,,Relâmpago Marquin,10,2024-11-05_19h38.54.917,two-digit-number-comparison-task,2024.1.5,None,2024-11-05 19h39.09.627264 -0300,
17,lower,0,0,0,0,0,67,67,6,179.41535380017012,,,,,,,,,,179.40330220013857,179.41535380017012,179.41535380017012,179.41535380017012,181.41566550009884,181.41566550009884,181.85249499999918,Menor que 55,Maior que 55,left-lower/right-greater,left,left,1,0.4209771000314504,None,,,,,,,,,,,,Relâmpago Marquin,10,2024-11-05_19h38.54.917,two-digit-number-comparison-task,2024.1.5,None,2024-11-05 19h39.09.627264 -0300,
67,greater,0,0,0,0,0,68,68,55,181.865439100191,,,,,,,,,,181.85301130008884,181.865439100191,181.865439100191,181.865439100191,183.86533619998954,183.86533619998954,184.23566910019144,Menor que 55,Maior que 55,left-lower/right-greater,right,right,1,0.3642302001826465,None,,,,,,,,,,,,Relâmpago Marquin,10,2024-11-05_19h38.54.917,two-digit-number-comparison-task,2024.1.5,None,2024-11-05 19h39.09.627264 -0300,
13,lower,0,0,0,0,0,69,69,2,184.24890440003946,,,,,,,,,,184.23610550002195,184.24890440003946,184.24890440003946,184.24890440003946,186.24868330010213,186.24868330010213,186.6350104000885,Menor que 55,Maior que 55,left-lower/right-greater,left,left,1,0.3724877000786364,None,,,,,,,,,,,,Relâmpago Marquin,10,2024-11-05_19h38.54.917,two-digit-number-comparison-task,2024.1.5,None,2024-11-05 19h39.09.627264 -0300,
40,lower,0,0,0,0,0,70,70,29,186.64852360007353,,,,,,,,,,186.63547550002113,186.64852360007353,186.64852360007353,186.64852360007353,188.6484831001144,188.6484831001144,189.0851259001065,Menor que 55,Maior que 55,left-lower/right-greater,left,left,1,0.42970099998638034,None,,,,,,,,,,,,Relâmpago Marquin,10,2024-11-05_19h38.54.917,two-digit-number-comparison-task,2024.1.5,None,2024-11-05 19h39.09.627264 -0300,
91,greater,0,0,0,0,0,71,71,79,189.09854750009254,,,,,,,,,,189.0855837999843,189.09854750009254,189.09854750009254,189.09854750009254,191.0985256000422,191.0985256000422,191.48581010010093,Menor que 55,Maior que 55,left-lower/right-greater,right,right,1,0.38600769988261163,None,,,,,,,,,,,,Relâmpago Marquin,10,2024-11-05_19h38.54.917,two-digit-number-comparison-task,2024.1.5,None,2024-11-05 19h39.09.627264 -0300,
90,greater,0,0,0,0,0,72,72,78,191.49831659998745,,,,,,,,,,191.4862482000608,191.49831659998745,191.49831659998745,191.49831659998745,193.49829070013948,193.49829070013948,193.95171230006963,Menor que 55,Maior que 55,left-lower/right-greater,right,right,1,0.44296000013127923,None,,,,,,,,,,,,Relâmpago Marquin,10,2024-11-05_19h38.54.917,two-digit-number-comparison-task,2024.1.5,None,2024-11-05 19h39.09.627264 -0300,
78,greater,0,0,0,0,0,73,73,66,193.965017599985,,,,,,,,,,193.9521419000812,193.965017599985,193.965017599985,193.965017599985,195.96517119999044,195.96517119999044,196.45152400014922,Menor que 55,Maior que 55,left-lower/right-greater,right,right,1,0.4804263000842184,None,,,,,,,,,,,,Relâmpago Marquin,10,2024-11-05_19h38.54.917,two-digit-number-comparison-task,2024.1.5,None,2024-11-05 19h39.09.627264 -0300,
18,lower,0,0,0,0,0,74,74,7,196.46474270010367,,,,,,,,,,196.4519735001959,196.46474270010367,196.46474270010367,196.46474270010367,198.46473450004123,198.46473450004123,198.81786380009726,Menor que 55,Maior que 55,left-lower/right-greater,left,left,1,0.3405169998295605,None,,,,,,,,,,,,Relâmpago Marquin,10,2024-11-05_19h38.54.917,two-digit-number-comparison-task,2024.1.5,None,2024-11-05 19h39.09.627264 -0300,
35,lower,0,0,0,0,0,75,75,24,198.8313591000624,,,,,,,,,,198.81829280010425,198.8313591000624,198.8313591000624,198.8313591000624,200.8314220001921,200.8314220001921,201.2519436001312,Menor que 55,Maior que 55,left-lower/right-greater,left,left,1,0.41345409979112446,None,,,,,,,,,,,,Relâmpago Marquin,10,2024-11-05_19h38.54.917,two-digit-number-comparison-task,2024.1.5,None,2024-11-05 19h39.09.627264 -0300,
21,lower,0,0,0,0,0,76,76,10,201.26476170006208,,,,,,,,,,201.252545400057,201.26476170006208,201.26476170006208,201.26476170006208,203.26499600009993,203.26499600009993,203.65132020018063,Menor que 55,Maior que 55,left-lower/right-greater,left,left,1,0.3801808999851346,None,,,,,,,,,,,,Relâmpago Marquin,10,2024-11-05_19h38.54.917,two-digit-number-comparison-task,2024.1.5,None,2024-11-05 19h39.09.627264 -0300,
47,lower,0,0,0,0,0,77,77,36,203.66446180013008,,,,,,,,,,203.651755400002,203.66446180013008,203.66446180013008,203.66446180013008,205.66423690016381,205.66423690016381,206.06757299997844,Menor que 55,Maior que 55,left-lower/right-greater,left,left,1,0.38923810003325343,None,,,,,,,,,,,,Relâmpago Marquin,10,2024-11-05_19h38.54.917,two-digit-number-comparison-task,2024.1.5,None,2024-11-05 19h39.09.627264 -0300,
33,lower,0,0,0,0,0,78,78,22,206.08127359999344,,,,,,,,,,206.06799700018018,206.08127359999344,206.08127359999344,206.08127359999344,208.08097730018198,208.08097730018198,208.4841191000305,Menor que 55,Maior que 55,left-lower/right-greater,left,left,1,0.3889748998917639,None,,,,,,,,,,,,Relâmpago Marquin,10,2024-11-05_19h38.54.917,two-digit-number-comparison-task,2024.1.5,None,2024-11-05 19h39.09.627264 -0300,
71,greater,0,0,0,0,0,79,79,59,208.49765330017544,,,,,,,,,,208.48454430000857,208.49765330017544,208.49765330017544,208.49765330017544,210.49771830020472,210.49771830020472,210.93415450002067,Menor que 55,Maior que 55,left-lower/right-greater,right,right,1,0.4274742999114096,None,,,,,,,,,,,,Relâmpago Marquin,10,2024-11-05_19h38.54.917,two-digit-number-comparison-task,2024.1.5,None,2024-11-05 19h39.09.627264 -0300,
89,greater,0,0,0,0,0,80,80,77,210.94753490015864,,,,,,,,,,210.9345772000961,210.94753490015864,210.94753490015864,210.94753490015864,212.94746140018106,212.94746140018106,213.3517575999722,Menor que 55,Maior que 55,left-lower/right-greater,right,right,1,0.4010501999873668,None,,,,,,,,,,,,Relâmpago Marquin,10,2024-11-05_19h38.54.917,two-digit-number-comparison-task,2024.1.5,None,2024-11-05 19h39.09.627264 -0300,
30,lower,0,0,0,0,0,81,81,19,213.36405159998685,,,,,,,,,,213.3522067000158,213.36405159998685,213.36405159998685,213.36405159998685,215.36407860019244,215.36407860019244,215.75114309997298,Menor que 55,Maior que 55,left-lower/right-greater,left,left,1,0.3848755001090467,None,,,,,,,,,,,,Relâmpago Marquin,10,2024-11-05_19h38.54.917,two-digit-number-comparison-task,2024.1.5,None,2024-11-05 19h39.09.627264 -0300,
61,greater,0,0,0,0,0,82,82,49,215.7638336000964,,,,,,,,,,215.75156900007278,215.7638336000964,215.7638336000964,215.7638336000964,217.76376890018582,217.76376890018582,218.21789850015193,Menor que 55,Maior que 55,left-lower/right-greater,right,right,1,0.4489990998990834,None,,,,,,,,,,,,Relâmpago Marquin,10,2024-11-05_19h38.54.917,two-digit-number-comparison-task,2024.1.5,None,2024-11-05 19h39.09.627264 -0300,
77,greater,0,0,0,0,0,83,83,65,218.23050200007856,,,,,,,,,,218.21832200000063,218.23050200007856,218.23050200007856,218.23050200007856,220.23139910004102,220.23139910004102,220.66717470018193,Menor que 55,Maior que 55,left-lower/right-greater,right,right,1,0.42976319999434054,None,,,,,,,,,,,,Relâmpago Marquin,10,2024-11-05_19h38.54.917,two-digit-number-comparison-task,2024.1.5,None,2024-11-05 19h39.09.627264 -0300,
25,lower,0,0,0,0,0,84,84,14,220.68014980014414,,,,,,,,,,220.66760869999416,220.68014980014414,220.68014980014414,220.68014980014414,222.68022500001825,222.68022500001825,223.08413530001417,Menor que 55,Maior que 55,left-lower/right-greater,left,left,1,0.3975442999508232,None,,,,,,,,,,,,Relâmpago Marquin,10,2024-11-05_19h38.54.917,two-digit-number-comparison-task,2024.1.5,None,2024-11-05 19h39.09.627264 -0300,
96,greater,0,0,0,0,0,85,85,84,223.0970092001371,,,,,,,,,,223.0847905999981,223.0970092001371,223.0970092001371,223.0970092001371,225.09709100006148,225.09709100006148,225.48314310004935,Menor que 55,Maior que 55,left-lower/right-greater,right,right,1,0.37146249995566905,None,,,,,,,,,,,,Relâmpago Marquin,10,2024-11-05_19h38.54.917,two-digit-number-comparison-task,2024.1.5,None,2024-11-05 19h39.09.627264 -0300,
34,lower,0,0,0,0,0,86,86,23,225.49669390008785,,,,,,,,,,225.48358700005338,225.49669390008785,225.49669390008785,225.49669390008785,227.49676110013388,227.49676110013388,227.9013842002023,Menor que 55,Maior que 55,left-lower/right-greater,left,left,1,0.3883307999931276,None,,,,,,,,,,,,Relâmpago Marquin,10,2024-11-05_19h38.54.917,two-digit-number-comparison-task,2024.1.5,None,2024-11-05 19h39.09.627264 -0300,
57,greater,0,0,0,0,0,87,87,45,227.91347310016863,,,,,,,,,,227.901818000013,227.91347310016863,227.91347310016863,227.91347310016863,229.91344949998893,229.91344949998893,230.34996680007316,Menor que 55,Maior que 55,left-lower/right-greater,right,right,1,0.42786479997448623,None,,,,,,,,,,,,Relâmpago Marquin,10,2024-11-05_19h38.54.917,two-digit-number-comparison-task,2024.1.5,None,2024-11-05 19h39.09.627264 -0300,
,,0,0,0,0,,,,,,,,,,,,,,,,,,,,,,,,,,,,,,230.35031610005535,230.39516200008802,230.39516200008802,230.39516200008802,232.06621180009097,,,,,,,Relâmpago Marquin,10,2024-11-05_19h38.54.917,two-digit-number-comparison-task,2024.1.5,None,2024-11-05 19h39.09.627264 -0300,
59,greater,1,0,1,0,0,0,0,47,232.97824349999428,,,,,,232.06647080020048,232.11165910004638,232.11165910004638,232.94998270017095,232.95944430003874,232.97824349999428,232.97824349999428,232.97824349999428,234.96292950003408,234.96292950003408,235.44989260006696,Menor que 55,Maior que 55,left-lower/right-greater,right,right,1,0.4742596000432968,None,,,,,,,,,,,,Relâmpago Marquin,10,2024-11-05_19h38.54.917,two-digit-number-comparison-task,2024.1.5,None,2024-11-05 19h39.09.627264 -0300,
48,lower,1,0,1,0,0,1,1,37,235.46266060019843,,,,,,,,,,235.4506242000498,235.46266060019843,235.46266060019843,235.46266060019843,237.46280720015056,237.46280720015056,237.85027749999426,Menor que 55,Maior que 55,left-lower/right-greater,left,left,1,0.38294770009815693,None,,,,,,,,,,,,Relâmpago Marquin,10,2024-11-05_19h38.54.917,two-digit-number-comparison-task,2024.1.5,None,2024-11-05 19h39.09.627264 -0300,
95,greater,1,0,1,0,0,2,2,83,237.86290730000474,,,,,,,,,,237.85072920005769,237.86290730000474,237.86290730000474,237.86290730000474,239.86326790018938,239.86326790018938,240.2498034001328,Menor que 55,Maior que 55,left-lower/right-greater,right,right,1,0.38160450011491776,None,,,,,,,,,,,,Relâmpago Marquin,10,2024-11-05_19h38.54.917,two-digit-number-comparison-task,2024.1.5,None,2024-11-05 19h39.09.627264 -0300,
84,greater,1,0,1,0,0,3,3,72,240.2628393000923,,,,,,,,,,240.25027570012026,240.2628393000923,240.2628393000923,240.2628393000923,242.26249580015428,242.26249580015428,242.66654130001552,Menor que 55,Maior que 55,left-lower/right-greater,right,right,1,0.39930579997599125,None,,,,,,,,,,,,Relâmpago Marquin,10,2024-11-05_19h38.54.917,two-digit-number-comparison-task,2024.1.5,None,2024-11-05 19h39.09.627264 -0300,
38,lower,1,0,1,0,0,4,4,27,242.6796423001215,,,,,,,,,,242.66704680002294,242.6796423001215,242.6796423001215,242.6796423001215,244.67960120015778,244.67960120015778,245.14925870019943,Menor que 55,Maior que 55,left-lower/right-greater,left,left,1,0.4542286000214517,None,,,,,,,,,,,,Relâmpago Marquin,10,2024-11-05_19h38.54.917,two-digit-number-comparison-task,2024.1.5,None,2024-11-05 19h39.09.627264 -0300,
16,lower,1,0,1,0,0,5,5,5,245.16272650007159,,,,,,,,,,245.14974989998154,245.16272650007159,245.16272650007159,245.16272650007159,247.16262309998274,247.16262309998274,247.54889440000989,Menor que 55,Maior que 55,left-lower/right-greater,left,left,1,0.3696402001660317,None,,,,,,,,,,,,Relâmpago Marquin,10,2024-11-05_19h38.54.917,two-digit-number-comparison-task,2024.1.5,None,2024-11-05 19h39.09.627264 -0300,
68,greater,1,0,1,0,0,6,6,56,247.56242009997368,,,,,,,,,,247.54943230003119,247.56242009997368,247.56242009997368,247.56242009997368,249.56283210008405,249.56283210008405,249.9999146000482,Menor que 55,Maior que 55,left-lower/right-greater,right,right,1,0.42550439992919564,None,,,,,,,,,,,,Relâmpago Marquin,10,2024-11-05_19h38.54.917,two-digit-number-comparison-task,2024.1.5,None,2024-11-05 19h39.09.627264 -0300,
90,greater,1,0,1,0,0,7,7,78,250.01193100004457,,,,,,,,,,250.00034760008566,250.01193100004457,250.01193100004457,250.01193100004457,252.01251140004024,252.01251140004024,252.46513520018198,Menor que 55,Maior que 55,left-lower/right-greater,right,right,1,0.44073859998025,None,,,,,,,,,,,,Relâmpago Marquin,10,2024-11-05_19h38.54.917,two-digit-number-comparison-task,2024.1.5,None,2024-11-05 19h39.09.627264 -0300,
60,greater,1,0,1,0,0,8,8,48,252.47877120017074,,,,,,,,,,252.4655576001387,252.47877120017074,252.47877120017074,252.47877120017074,254.47868390008807,254.47868390008807,254.91566459997557,Menor que 55,Maior que 55,left-lower/right-greater,right,right,1,0.4216465000063181,None,,,,,,,,,,,,Relâmpago Marquin,10,2024-11-05_19h38.54.917,two-digit-number-comparison-task,2024.1.5,None,2024-11-05 19h39.09.627264 -0300,
86,greater,1,0,1,0,0,9,9,74,254.9287740001455,,,,,,,,,,254.9161062000785,254.9287740001455,254.9287740001455,254.9287740001455,256.92874610004947,256.92874610004947,257.2988933001179,Menor que 55,Maior que 55,left-lower/right-greater,right,right,1,0.36484239995479584,None,,,,,,,,,,,,Relâmpago Marquin,10,2024-11-05_19h38.54.917,two-digit-number-comparison-task,2024.1.5,None,2024-11-05 19h39.09.627264 -0300,
44,lower,1,0,1,0,0,10,10,33,257.31188150006346,,,,,,,,,,257.29938430013135,257.31188150006346,257.31188150006346,257.31188150006346,259.3120728000067,259.3120728000067,259.75185320014134,Menor que 55,Maior que 55,left-lower/right-greater,left,left,1,0.43781199981458485,None,,,,,,,,,,,,Relâmpago Marquin,10,2024-11-05_19h38.54.917,two-digit-number-comparison-task,2024.1.5,None,2024-11-05 19h39.09.627264 -0300,
42,lower,1,0,1,0,0,11,11,31,259.77715350012295,,,,,,,,,,259.7525655000936,259.77715350012295,259.77715350012295,259.77715350012295,261.76200009998865,261.76200009998865,262.1655282001011,Menor que 55,Maior que 55,left-lower/right-greater,left,left,1,0.38630810007452965,None,,,,,,,,,,,,Relâmpago Marquin,10,2024-11-05_19h38.54.917,two-digit-number-comparison-task,2024.1.5,None,2024-11-05 19h39.09.627264 -0300,
18,lower,1,0,1,0,0,12,12,7,262.1782529000193,,,,,,,,,,262.1659487001598,262.1782529000193,262.1782529000193,262.1782529000193,264.1790542001836,264.1790542001836,264.5822781000752,Menor que 55,Maior que 55,left-lower/right-greater,left,left,1,0.4013032999355346,None,,,,,,,,,,,,Relâmpago Marquin,10,2024-11-05_19h38.54.917,two-digit-number-comparison-task,2024.1.5,None,2024-11-05 19h39.09.627264 -0300,
45,lower,1,0,1,0,0,13,13,34,264.5951235999819,,,,,,,,,,264.5826986001339,264.5951235999819,264.5951235999819,264.5951235999819,266.59474810003303,266.59474810003303,267.08231780002825,Menor que 55,Maior que 55,left-lower/right-greater,left,left,1,0.4816004999447614,None,,,,,,,,,,,,Relâmpago Marquin,10,2024-11-05_19h38.54.917,two-digit-number-comparison-task,2024.1.5,None,2024-11-05 19h39.09.627264 -0300,
69,greater,1,0,1,0,0,14,14,57,267.09461200004444,,,,,,,,,,267.0827534000855,267.09461200004444,267.09461200004444,267.09461200004444,269.094861100195,269.094861100195,269.5477460999973,Menor que 55,Maior que 55,left-lower/right-greater,right,right,1,0.43810770008713007,None,,,,,,,,,,,,Relâmpago Marquin,10,2024-11-05_19h38.54.917,two-digit-number-comparison-task,2024.1.5,None,2024-11-05 19h39.09.627264 -0300,
71,greater,1,0,1,0,0,15,15,59,269.5609261000063,,,,,,,,,,269.5481897001155,269.5609261000063,269.5609261000063,269.5609261000063,271.5614356000442,271.5614356000442,272.16466470016167,Menor que 55,Maior que 55,left-lower/right-greater,right,right,1,0.5969527999404818,None,,,,,,,,,,,,Relâmpago Marquin,10,2024-11-05_19h38.54.917,two-digit-number-comparison-task,2024.1.5,None,2024-11-05 19h39.09.627264 -0300,
27,lower,1,0,1,0,0,16,16,16,272.1781350001693,,,,,,,,,,272.1650855001062,272.1781350001693,272.1781350001693,272.1781350001693,274.17782770004123,274.17782770004123,274.5975846000947,Menor que 55,Maior que 55,left-lower/right-greater,left,left,1,0.40408729994669557,None,,,,,,,,,,,,Relâmpago Marquin,10,2024-11-05_19h38.54.917,two-digit-number-comparison-task,2024.1.5,None,2024-11-05 19h39.09.627264 -0300,
37,lower,1,0,1,0,0,17,17,26,274.6111988001503,,,,,,,,,,274.59800700005144,274.6111988001503,274.6111988001503,274.6111988001503,276.6110805000644,276.6110805000644,277.0471870000474,Menor que 55,Maior que 55,left-lower/right-greater,left,left,1,0.42596110003069043,None,,,,,,,,,,,,Relâmpago Marquin,10,2024-11-05_19h38.54.917,two-digit-number-comparison-task,2024.1.5,None,2024-11-05 19h39.09.627264 -0300,
78,greater,1,0,1,0,0,18,18,66,277.06085540005006,,,,,,,,,,277.0476251000073,277.06085540005006,277.06085540005006,277.06085540005006,279.06111060013063,279.06111060013063,279.4973258001264,Menor que 55,Maior que 55,left-lower/right-greater,right,right,1,0.42354660015553236,None,,,,,,,,,,,,Relâmpago Marquin,10,2024-11-05_19h38.54.917,two-digit-number-comparison-task,2024.1.5,None,2024-11-05 19h39.09.627264 -0300,
63,greater,1,0,1,0,0,19,19,51,279.5114055001177,,,,,,,,,,279.4977445001714,279.5114055001177,279.5114055001177,279.5114055001177,281.51101130014285,281.51101130014285,281.89745629997924,Menor que 55,Maior que 55,left-lower/right-greater,right,left,0,0.374684700043872,None,,,,,,,,,,,,Relâmpago Marquin,10,2024-11-05_19h38.54.917,two-digit-number-comparison-task,2024.1.5,None,2024-11-05 19h39.09.627264 -0300,
14,lower,1,0,1,0,0,20,20,3,281.9107984001748,,,,,,,,,,281.89806900010444,281.9107984001748,281.9107984001748,281.9107984001748,283.9109545000829,283.9109545000829,284.296848700149,Menor que 55,Maior que 55,left-lower/right-greater,left,left,1,0.38193810009397566,None,,,,,,,,,,,,Relâmpago Marquin,10,2024-11-05_19h38.54.917,two-digit-number-comparison-task,2024.1.5,None,2024-11-05 19h39.09.627264 -0300,
24,lower,1,0,1,0,0,21,21,13,284.31048750015907,,,,,,,,,,284.2972688002046,284.31048750015907,284.31048750015907,284.31048750015907,286.31037469999865,286.31037469999865,286.69739950005896,Menor que 55,Maior que 55,left-lower/right-greater,left,left,1,0.382458999985829,None,,,,,,,,,,,,Relâmpago Marquin,10,2024-11-05_19h38.54.917,two-digit-number-comparison-task,2024.1.5,None,2024-11-05 19h39.09.627264 -0300,
87,greater,1,0,1,0,0,22,22,75,286.7107236001175,,,,,,,,,,286.6978235000279,286.7107236001175,286.7107236001175,286.7107236001175,288.7105564000085,288.7105564000085,289.09668740001507,Menor que 55,Maior que 55,left-lower/right-greater,right,right,1,0.374394099926576,None,,,,,,,,,,,,Relâmpago Marquin,10,2024-11-05_19h38.54.917,two-digit-number-comparison-task,2024.1.5,None,2024-11-05 19h39.09.627264 -0300,
66,greater,1,0,1,0,0,23,23,54,289.11033140006475,,,,,,,,,,289.0971547001973,289.11033140006475,289.11033140006475,289.11033140006475,291.11044700001366,291.11044700001366,291.54701460013166,Menor que 55,Maior que 55,left-lower/right-greater,right,right,1,0.4226954001933336,None,,,,,,,,,,,,Relâmpago Marquin,10,2024-11-05_19h38.54.917,two-digit-number-comparison-task,2024.1.5,None,2024-11-05 19h39.09.627264 -0300,
98,greater,1,0,1,0,0,24,24,86,291.560411100043,,,,,,,,,,291.547644500155,291.560411100043,291.560411100043,291.560411100043,293.56027570017613,293.56027570017613,293.9977204001043,Menor que 55,Maior que 55,left-lower/right-greater,right,right,1,0.42070239991880953,None,,,,,,,,,,,,Relâmpago Marquin,10,2024-11-05_19h38.54.917,two-digit-number-comparison-task,2024.1.5,None,2024-11-05 19h39.09.627264 -0300,
15,lower,1,0,1,0,0,25,25,4,294.01047390000895,,,,,,,,,,293.9984122000169,294.01047390000895,294.01047390000895,294.01047390000895,296.0099361001048,296.0099361001048,296.49652749998495,Menor que 55,Maior que 55,left-lower/right-greater,left,left,1,0.48263300000689924,None,,,,,,,,,,,,Relâmpago Marquin,10,2024-11-05_19h38.54.917,two-digit-number-comparison-task,2024.1.5,None,2024-11-05 19h39.09.627264 -0300,
40,lower,1,0,1,0,0,26,26,29,296.5101507001091,,,,,,,,,,296.4969437001273,296.5101507001091,296.5101507001091,296.5101507001091,298.5099618001841,298.5099618001841,298.99673840007745,Menor que 55,Maior que 55,left-lower/right-greater,left,left,1,0.4793126001022756,None,,,,,,,,,,,,Relâmpago Marquin,10,2024-11-05_19h38.54.917,two-digit-number-comparison-task,2024.1.5,None,2024-11-05 19h39.09.627264 -0300,
25,lower,1,0,1,0,0,27,27,14,299.00991060002707,,,,,,,,,,298.99716400005855,299.00991060002707,299.00991060002707,299.00991060002707,301.009972400032,301.009972400032,301.39641160005704,Menor que 55,Maior que 55,left-lower/right-greater,left,left,1,0.37928109988570213,None,,,,,,,,,,,,Relâmpago Marquin,10,2024-11-05_19h38.54.917,two-digit-number-comparison-task,2024.1.5,None,2024-11-05 19h39.09.627264 -0300,
75,greater,1,0,1,0,0,28,28,63,301.4099211001303,,,,,,,,,,301.3968334000092,301.4099211001303,301.4099211001303,301.4099211001303,303.4097053001169,303.4097053001169,303.81293989997357,Menor que 55,Maior que 55,left-lower/right-greater,right,right,1,0.3872728000860661,None,,,,,,,,,,,,Relâmpago Marquin,10,2024-11-05_19h38.54.917,two-digit-number-comparison-task,2024.1.5,None,2024-11-05 19h39.09.627264 -0300,
58,greater,1,0,1,0,0,29,29,46,303.82789870002307,,,,,,,,,,303.8133527999744,303.82789870002307,303.82789870002307,303.82789870002307,305.8263690001331,305.8263690001331,306.36445680004545,Menor que 55,Maior que 55,left-lower/right-greater,right,right,1,0.5302677000872791,None,,,,,,,,,,,,Relâmpago Marquin,10,2024-11-05_19h38.54.917,two-digit-number-comparison-task,2024.1.5,None,2024-11-05 19h39.09.627264 -0300,
96,greater,1,0,1,0,0,30,30,84,306.39139600005,,,,,,,,,,306.3649234001059,306.39139600005,306.39139600005,306.39139600005,308.376555000199,308.376555000199,308.79612150019966,Menor que 55,Maior que 55,left-lower/right-greater,right,right,1,0.4123773998580873,None,,,,,,,,,,,,Relâmpago Marquin,10,2024-11-05_19h38.54.917,two-digit-number-comparison-task,2024.1.5,None,2024-11-05 19h39.09.627264 -0300,
50,lower,1,0,1,0,0,31,31,39,308.80952460016124,,,,,,,,,,308.79659779998474,308.80952460016124,308.80952460016124,308.80952460016124,310.8090103000868,310.8090103000868,311.32882890012115,Menor que 55,Maior que 55,left-lower/right-greater,left,left,1,0.5073221998754889,None,,,,,,,,,,,,Relâmpago Marquin,10,2024-11-05_19h38.54.917,two-digit-number-comparison-task,2024.1.5,None,2024-11-05 19h39.09.627264 -0300,
70,greater,1,0,1,0,0,32,32,58,311.3420934001915,,,,,,,,,,311.32942730002105,311.3420934001915,311.3420934001915,311.3420934001915,313.342638600152,313.342638600152,313.7292163001839,Menor que 55,Maior que 55,left-lower/right-greater,right,right,1,0.3745497001800686,None,,,,,,,,,,,,Relâmpago Marquin,10,2024-11-05_19h38.54.917,two-digit-number-comparison-task,2024.1.5,None,2024-11-05 19h39.09.627264 -0300,
67,greater,1,0,1,0,0,33,33,55,313.7422180001158,,,,,,,,,,313.7296587000601,313.7422180001158,313.7422180001158,313.7422180001158,315.74275790015236,315.74275790015236,316.17911270004697,Menor que 55,Maior que 55,left-lower/right-greater,right,right,1,0.42149290000088513,None,,,,,,,,,,,,Relâmpago Marquin,10,2024-11-05_19h38.54.917,two-digit-number-comparison-task,2024.1.5,None,2024-11-05 19h39.09.627264 -0300,
72,greater,1,0,1,0,0,34,34,60,316.1923825000413,,,,,,,,,,316.17955540004186,316.1923825000413,316.1923825000413,316.1923825000413,318.19255260005593,318.19255260005593,318.62887720018625,Menor que 55,Maior que 55,left-lower/right-greater,right,right,1,0.4284999999217689,None,,,,,,,,,,,,Relâmpago Marquin,10,2024-11-05_19h38.54.917,two-digit-number-comparison-task,2024.1.5,None,2024-11-05 19h39.09.627264 -0300,
56,greater,1,0,1,0,0,35,35,44,318.6425010000821,,,,,,,,,,318.6294572001789,318.6425010000821,318.6425010000821,318.6425010000821,320.64247189997695,320.64247189997695,321.0621681001503,Menor que 55,Maior que 55,left-lower/right-greater,right,right,1,0.41093900008127093,None,,,,,,,,,,,,Relâmpago Marquin,10,2024-11-05_19h38.54.917,two-digit-number-comparison-task,2024.1.5,None,2024-11-05 19h39.09.627264 -0300,
35,lower,1,0,1,0,0,36,36,24,321.07579200016335,,,,,,,,,,321.06259410013445,321.07579200016335,321.07579200016335,321.07579200016335,323.0759827999864,323.0759827999864,323.4791817001533,Menor que 55,Maior que 55,left-lower/right-greater,left,left,1,0.4001252001617104,None,,,,,,,,,,,,Relâmpago Marquin,10,2024-11-05_19h38.54.917,two-digit-number-comparison-task,2024.1.5,None,2024-11-05 19h39.09.627264 -0300,
81,greater,1,0,1,0,0,37,37,69,323.4923280000221,,,,,,,,,,323.4796447001863,323.4923280000221,323.4923280000221,323.4923280000221,325.4919506001752,325.4919506001752,325.92859660019167,Menor que 55,Maior que 55,left-lower/right-greater,right,right,1,0.42514250008389354,None,,,,,,,,,,,,Relâmpago Marquin,10,2024-11-05_19h38.54.917,two-digit-number-comparison-task,2024.1.5,None,2024-11-05 19h39.09.627264 -0300,
28,lower,1,0,1,0,0,38,38,17,325.94197310018353,,,,,,,,,,325.9291737000458,325.94197310018353,325.94197310018353,325.94197310018353,327.94191640010104,327.94191640010104,328.41152349999174,Menor que 55,Maior que 55,left-lower/right-greater,left,left,1,0.4546914000529796,None,,,,,,,,,,,,Relâmpago Marquin,10,2024-11-05_19h38.54.917,two-digit-number-comparison-task,2024.1.5,None,2024-11-05 19h39.09.627264 -0300,
54,lower,1,0,1,0,0,39,39,43,328.4250904000364,,,,,,,,,,328.41196650010534,328.4250904000364,328.4250904000364,328.4250904000364,330.42565620015375,330.42565620015375,331.01167979999445,Menor que 55,Maior que 55,left-lower/right-greater,left,left,1,0.5711218998767436,None,,,,,,,,,,,,Relâmpago Marquin,10,2024-11-05_19h38.54.917,two-digit-number-comparison-task,2024.1.5,None,2024-11-05 19h39.09.627264 -0300,
99,greater,1,0,1,0,0,40,40,87,331.02523240004666,,,,,,,,,,331.0121276001446,331.02523240004666,331.02523240004666,331.02523240004666,333.025060800137,333.025060800137,333.3970640001353,Menor que 55,Maior que 55,left-lower/right-greater,right,right,1,0.364452299894765,None,,,,,,,,,,,,Relâmpago Marquin,10,2024-11-05_19h38.54.917,two-digit-number-comparison-task,2024.1.5,None,2024-11-05 19h39.09.627264 -0300,
93,greater,1,0,1,0,0,41,41,81,333.40841799997725,,,,,,,,,,333.397656199988,333.40841799997725,333.40841799997725,333.40841799997725,335.40847600018606,335.40847600018606,335.82796710007824,Menor que 55,Maior que 55,left-lower/right-greater,right,right,1,0.4037523998413235,None,,,,,,,,,,,,Relâmpago Marquin,10,2024-11-05_19h38.54.917,two-digit-number-comparison-task,2024.1.5,None,2024-11-05 19h39.09.627264 -0300,
43,lower,1,0,1,0,0,42,42,32,335.84156229998916,,,,,,,,,,335.8285398001317,335.84156229998916,335.84156229998916,335.84156229998916,337.8416507001966,337.8416507001966,338.29578689998016,Menor que 55,Maior que 55,left-lower/right-greater,left,left,1,0.4511079001240432,None,,,,,,,,,,,,Relâmpago Marquin,10,2024-11-05_19h38.54.917,two-digit-number-comparison-task,2024.1.5,None,2024-11-05 19h39.09.627264 -0300,
65,greater,1,0,1,0,0,43,43,53,338.30823560012504,,,,,,,,,,338.2962057001423,338.30823560012504,338.30823560012504,338.30823560012504,340.30794780002907,340.30794780002907,340.7280272000935,Menor que 55,Maior que 55,left-lower/right-greater,right,right,1,0.41693449998274446,None,,,,,,,,,,,,Relâmpago Marquin,10,2024-11-05_19h38.54.917,two-digit-number-comparison-task,2024.1.5,None,2024-11-05 19h39.09.627264 -0300,
49,lower,1,0,1,0,0,44,44,38,340.74120990000665,,,,,,,,,,340.72844880004413,340.74120990000665,340.74120990000665,340.74120990000665,342.7414587000385,342.7414587000385,343.1610274000559,Menor que 55,Maior que 55,left-lower/right-greater,left,left,1,0.4077963000163436,None,,,,,,,,,,,,Relâmpago Marquin,10,2024-11-05_19h38.54.917,two-digit-number-comparison-task,2024.1.5,None,2024-11-05 19h39.09.627264 -0300,
47,lower,1,0,1,0,0,45,45,36,343.1745959999971,,,,,,,,,,343.16147180018015,343.1745959999971,343.1745959999971,343.1745959999971,345.17479050019756,345.17479050019756,345.57771800016053,Menor que 55,Maior que 55,left-lower/right-greater,left,left,1,0.38978289999067783,None,,,,,,,,,,,,Relâmpago Marquin,10,2024-11-05_19h38.54.917,two-digit-number-comparison-task,2024.1.5,None,2024-11-05 19h39.09.627264 -0300,
82,greater,1,0,1,0,0,46,46,70,345.5915851001628,,,,,,,,,,345.5781531999819,345.5915851001628,345.5915851001628,345.5915851001628,347.59097400004975,347.59097400004975,348.0109071000479,Menor que 55,Maior que 55,left-lower/right-greater,right,right,1,0.4155878000892699,None,,,,,,,,,,,,Relâmpago Marquin,10,2024-11-05_19h38.54.917,two-digit-number-comparison-task,2024.1.5,None,2024-11-05 19h39.09.627264 -0300,
61,greater,1,0,1,0,0,47,47,49,348.0245743000414,,,,,,,,,,348.0113274001051,348.0245743000414,348.0245743000414,348.0245743000414,350.02408920018934,350.02408920018934,350.47746610012837,Menor que 55,Maior que 55,left-lower/right-greater,right,right,1,0.4448174999561161,None,,,,,,,,,,,,Relâmpago Marquin,10,2024-11-05_19h38.54.917,two-digit-number-comparison-task,2024.1.5,None,2024-11-05 19h39.09.627264 -0300,
32,lower,1,0,1,0,0,48,48,21,350.49079830013216,,,,,,,,,,350.4779038000852,350.49079830013216,350.49079830013216,350.49079830013216,352.49094630009495,352.49094630009495,352.9606385000516,Menor que 55,Maior que 55,left-lower/right-greater,left,left,1,0.4580209001433104,None,,,,,,,,,,,,Relâmpago Marquin,10,2024-11-05_19h38.54.917,two-digit-number-comparison-task,2024.1.5,None,2024-11-05 19h39.09.627264 -0300,
21,lower,1,0,1,0,0,49,49,10,352.9739346001297,,,,,,,,,,352.9610548000783,352.9739346001297,352.9739346001297,352.9739346001297,354.97414050018415,354.97414050018415,355.3608903000131,Menor que 55,Maior que 55,left-lower/right-greater,left,left,1,0.3823020998388529,None,,,,,,,,,,,,Relâmpago Marquin,10,2024-11-05_19h38.54.917,two-digit-number-comparison-task,2024.1.5,None,2024-11-05 19h39.09.627264 -0300,
91,greater,1,0,1,0,0,50,50,79,355.37361320015043,,,,,,,,,,355.3613220001571,355.37361320015043,355.37361320015043,355.37361320015043,357.37375869997777,357.37375869997777,357.81029430008493,Menor que 55,Maior que 55,left-lower/right-greater,right,right,1,0.42310369992628694,None,,,,,,,,,,,,Relâmpago Marquin,10,2024-11-05_19h38.54.917,two-digit-number-comparison-task,2024.1.5,None,2024-11-05 19h39.09.627264 -0300,
88,greater,1,0,1,0,0,51,51,76,357.8239450000692,,,,,,,,,,357.8107398999855,357.8239450000692,357.8239450000692,357.8239450000692,359.82350100018084,359.82350100018084,360.22707730019465,Menor que 55,Maior que 55,left-lower/right-greater,right,right,1,0.3984945002011955,None,,,,,,,,,,,,Relâmpago Marquin,10,2024-11-05_19h38.54.917,two-digit-number-comparison-task,2024.1.5,None,2024-11-05 19h39.09.627264 -0300,
52,lower,1,0,1,0,0,52,52,41,360.2401136001572,,,,,,,,,,360.2275048000738,360.2401136001572,360.2401136001572,360.2401136001572,362.2403824001085,362.2403824001085,362.82700150017627,Menor que 55,Maior que 55,left-lower/right-greater,left,left,1,0.5813959001097828,None,,,,,,,,,,,,Relâmpago Marquin,10,2024-11-05_19h38.54.917,two-digit-number-comparison-task,2024.1.5,None,2024-11-05 19h39.09.627264 -0300,
39,lower,1,0,1,0,0,53,53,28,362.8402391001582,,,,,,,,,,362.8274238000158,362.8402391001582,362.8402391001582,362.8402391001582,364.84030190017074,364.84030190017074,365.24565950012766,Menor que 55,Maior que 55,left-lower/right-greater,left,left,1,0.3972686000633985,None,,,,,,,,,,,,Relâmpago Marquin,10,2024-11-05_19h38.54.917,two-digit-number-comparison-task,2024.1.5,None,2024-11-05 19h39.09.627264 -0300,
19,lower,1,0,1,0,0,54,54,8,365.2721178000793,,,,,,,,,,365.2463849000633,365.2721178000793,365.2721178000793,365.2721178000793,367.2566883000545,367.2566883000545,367.6600101001095,Menor que 55,Maior que 55,left-lower/right-greater,left,left,1,0.39622980006970465,None,,,,,,,,,,,,Relâmpago Marquin,10,2024-11-05_19h38.54.917,two-digit-number-comparison-task,2024.1.5,None,2024-11-05 19h39.09.627264 -0300,
77,greater,1,0,1,0,0,55,55,65,367.6733531001955,,,,,,,,,,367.6604285000358,367.6733531001955,367.6733531001955,367.6733531001955,369.673172299983,369.673172299983,370.1598368000705,Menor que 55,Maior que 55,left-lower/right-greater,right,right,1,0.48380870022810996,None,,,,,,,,,,,,Relâmpago Marquin,10,2024-11-05_19h38.54.917,two-digit-number-comparison-task,2024.1.5,None,2024-11-05 19h39.09.627264 -0300,
12,lower,1,0,1,0,0,56,56,1,370.17327020014636,,,,,,,,,,370.16025860002264,370.17327020014636,370.17327020014636,370.17327020014636,372.1730233000126,372.1730233000126,372.6099512001965,Menor que 55,Maior que 55,left-lower/right-greater,left,left,1,0.4238253999501467,None,,,,,,,,,,,,Relâmpago Marquin,10,2024-11-05_19h38.54.917,two-digit-number-comparison-task,2024.1.5,None,2024-11-05 19h39.09.627264 -0300,
97,greater,1,0,1,0,0,57,57,85,372.62312650005333,,,,,,,,,,372.61039430019446,372.62312650005333,372.62312650005333,372.62312650005333,374.62296629999764,374.62296629999764,375.1263562000822,Menor que 55,Maior que 55,left-lower/right-greater,right,right,1,0.5020534999202937,None,,,,,,,,,,,,Relâmpago Marquin,10,2024-11-05_19h38.54.917,two-digit-number-comparison-task,2024.1.5,None,2024-11-05 19h39.09.627264 -0300,
80,greater,1,0,1,0,0,58,58,68,375.1394927999936,,,,,,,,,,375.12679240014404,375.1394927999936,375.1394927999936,375.1394927999936,377.139855600195,377.139855600195,377.5931544001214,Menor que 55,Maior que 55,left-lower/right-greater,right,right,1,0.4403617999050766,None,,,,,,,,,,,,Relâmpago Marquin,10,2024-11-05_19h38.54.917,two-digit-number-comparison-task,2024.1.5,None,2024-11-05 19h39.09.627264 -0300,
76,greater,1,0,1,0,0,59,59,64,377.60645520011894,,,,,,,,,,377.59361790004186,377.60645520011894,377.60645520011894,377.60645520011894,379.6059586000629,379.6059586000629,380.0124549001921,Menor que 55,Maior que 55,left-lower/right-greater,right,right,1,0.39920259988866746,None,,,,,,,,,,,,Relâmpago Marquin,10,2024-11-05_19h38.54.917,two-digit-number-comparison-task,2024.1.5,None,2024-11-05 19h39.09.627264 -0300,
20,lower,1,0,1,0,0,60,60,9,380.03795580007136,,,,,,,,,,380.01291809999384,380.03795580007136,380.03795580007136,380.03795580007136,382.0225907000713,382.0225907000713,382.44242159998976,Menor que 55,Maior que 55,left-lower/right-greater,left,left,1,0.40641309996135533,None,,,,,,,,,,,,Relâmpago Marquin,10,2024-11-05_19h38.54.917,two-digit-number-comparison-task,2024.1.5,None,2024-11-05 19h39.09.627264 -0300,
79,greater,1,0,1,0,0,61,61,67,382.4559094000142,,,,,,,,,,382.44287899998017,382.4559094000142,382.4559094000142,382.4559094000142,384.45567280007526,384.45567280007526,384.8421646000352,Menor que 55,Maior que 55,left-lower/right-greater,right,right,1,0.3723817002028227,None,,,,,,,,,,,,Relâmpago Marquin,10,2024-11-05_19h38.54.917,two-digit-number-comparison-task,2024.1.5,None,2024-11-05 19h39.09.627264 -0300,
64,greater,1,0,1,0,0,62,62,52,384.8557643999811,,,,,,,,,,384.84258230007254,384.8557643999811,384.8557643999811,384.8557643999811,386.8558587001171,386.8558587001171,387.30900190002285,Menor que 55,Maior que 55,left-lower/right-greater,right,right,1,0.4443345000036061,None,,,,,,,,,,,,Relâmpago Marquin,10,2024-11-05_19h38.54.917,two-digit-number-comparison-task,2024.1.5,None,2024-11-05 19h39.09.627264 -0300,
23,lower,1,0,1,0,0,63,63,12,387.32235070015304,,,,,,,,,,387.3094397999812,387.32235070015304,387.32235070015304,387.32235070015304,389.3228802001104,389.3228802001104,389.72846020013094,Menor que 55,Maior que 55,left-lower/right-greater,left,left,1,0.3936985000036657,None,,,,,,,,,,,,Relâmpago Marquin,10,2024-11-05_19h38.54.917,two-digit-number-comparison-task,2024.1.5,None,2024-11-05 19h39.09.627264 -0300,
74,greater,1,0,1,0,0,64,64,62,389.7548494001385,,,,,,,,,,389.7293179000262,389.7548494001385,389.7548494001385,389.7548494001385,391.7385379001498,391.7385379001498,392.1418833001517,Menor que 55,Maior que 55,left-lower/right-greater,right,right,1,0.3944817997980863,None,,,,,,,,,,,,Relâmpago Marquin,10,2024-11-05_19h38.54.917,two-digit-number-comparison-task,2024.1.5,None,2024-11-05 19h39.09.627264 -0300,
92,greater,1,0,1,0,0,65,65,80,392.1554726001341,,,,,,,,,,392.14230579999276,392.1554726001341,392.1554726001341,392.1554726001341,394.1549660000019,394.1549660000019,394.5749856000766,Menor que 55,Maior que 55,left-lower/right-greater,right,right,1,0.4100339999422431,None,,,,,,,,,,,,Relâmpago Marquin,10,2024-11-05_19h38.54.917,two-digit-number-comparison-task,2024.1.5,None,2024-11-05 19h39.09.627264 -0300,
85,greater,1,0,1,0,0,66,66,73,394.5888226001989,,,,,,,,,,394.5753983000759,394.5888226001989,394.5888226001989,394.5888226001989,396.58876319997944,396.58876319997944,396.99183870013803,Menor que 55,Maior que 55,left-lower/right-greater,right,right,1,0.39207489998079836,None,,,,,,,,,,,,Relâmpago Marquin,10,2024-11-05_19h38.54.917,two-digit-number-comparison-task,2024.1.5,None,2024-11-05 19h39.09.627264 -0300,
46,lower,1,0,1,0,0,67,67,35,397.0052520001773,,,,,,,,,,396.99230880010873,397.0052520001773,397.0052520001773,397.0052520001773,399.0054620001465,399.0054620001465,399.4583205000963,Menor que 55,Maior que 55,left-lower/right-greater,left,left,1,0.43959970003925264,None,,,,,,,,,,,,Relâmpago Marquin,10,2024-11-05_19h38.54.917,two-digit-number-comparison-task,2024.1.5,None,2024-11-05 19h39.09.627264 -0300,
57,greater,1,0,1,0,0,68,68,45,399.4717883002013,,,,,,,,,,399.4587588000577,399.4717883002013,399.4717883002013,399.4717883002013,401.4718925000634,401.4718925000634,401.8930266001262,Menor que 55,Maior que 55,left-lower/right-greater,right,right,1,0.40485110017471015,None,,,,,,,,,,,,Relâmpago Marquin,10,2024-11-05_19h38.54.917,two-digit-number-comparison-task,2024.1.5,None,2024-11-05 19h39.09.627264 -0300,
89,greater,1,0,1,0,0,69,69,77,401.90505900001153,,,,,,,,,,401.8935554001946,401.90505900001153,401.90505900001153,401.90505900001153,403.90487680002116,403.90487680002116,404.358055600198,Menor que 55,Maior que 55,left-lower/right-greater,right,right,1,0.444167299894616,None,,,,,,,,,,,,Relâmpago Marquin,10,2024-11-05_19h38.54.917,two-digit-number-comparison-task,2024.1.5,None,2024-11-05 19h39.09.627264 -0300,
11,lower,1,0,1,0,0,70,70,0,404.3715695000719,,,,,,,,,,404.3584838001989,404.3715695000719,404.3715695000719,404.3715695000719,406.3711795001291,406.3711795001291,406.82472160016187,Menor que 55,Maior que 55,left-lower/right-greater,left,left,1,0.44944190001115203,None,,,,,,,,,,,,Relâmpago Marquin,10,2024-11-05_19h38.54.917,two-digit-number-comparison-task,2024.1.5,None,2024-11-05 19h39.09.627264 -0300,
26,lower,1,0,1,0,0,71,71,15,406.83746190019883,,,,,,,,,,406.8251442001201,406.83746190019883,406.83746190019883,406.83746190019883,408.8375479001552,408.8375479001552,409.5409753001295,Menor que 55,Maior que 55,left-lower/right-greater,left,left,1,0.687332300003618,None,,,,,,,,,,,,Relâmpago Marquin,10,2024-11-05_19h38.54.917,two-digit-number-comparison-task,2024.1.5,None,2024-11-05 19h39.09.627264 -0300,
22,lower,1,0,1,0,0,72,72,11,409.5543810999952,,,,,,,,,,409.5414241000544,409.5543810999952,409.5543810999952,409.5543810999952,411.55424210010096,411.55424210010096,412.0917341001332,Menor que 55,Maior que 55,left-lower/right-greater,left,left,1,0.5322086999658495,None,,,,,,,,,,,,Relâmpago Marquin,10,2024-11-05_19h38.54.917,two-digit-number-comparison-task,2024.1.5,None,2024-11-05 19h39.09.627264 -0300,
94,greater,1,0,1,0,0,73,73,82,412.10467130015604,,,,,,,,,,412.0922050999943,412.10467130015604,412.10467130015604,412.10467130015604,414.1048086001538,414.1048086001538,414.5571946001146,Menor que 55,Maior que 55,left-lower/right-greater,right,right,1,0.45113379997201264,None,,,,,,,,,,,,Relâmpago Marquin,10,2024-11-05_19h38.54.917,two-digit-number-comparison-task,2024.1.5,None,2024-11-05 19h39.09.627264 -0300,
30,lower,1,0,1,0,0,74,74,19,414.5706598001998,,,,,,,,,,414.5576484000776,414.5706598001998,414.5706598001998,414.5706598001998,416.57103920006193,416.57103920006193,417.25746100000106,Menor que 55,Maior que 55,left-lower/right-greater,left,left,1,0.6740357999224216,None,,,,,,,,,,,,Relâmpago Marquin,10,2024-11-05_19h38.54.917,two-digit-number-comparison-task,2024.1.5,None,2024-11-05 19h39.09.627264 -0300,
29,lower,1,0,1,0,0,75,75,18,417.2710417001508,,,,,,,,,,417.2579349000007,417.2710417001508,417.2710417001508,417.2710417001508,419.27114040008746,419.27114040008746,419.6906743000727,Menor que 55,Maior que 55,left-lower/right-greater,left,left,1,0.414632799802348,None,,,,,,,,,,,,Relâmpago Marquin,10,2024-11-05_19h38.54.917,two-digit-number-comparison-task,2024.1.5,None,2024-11-05 19h39.09.627264 -0300,
17,lower,1,0,1,0,0,76,76,6,419.7040381000843,,,,,,,,,,419.6911250001285,419.7040381000843,419.7040381000843,419.7040381000843,421.7046728001442,421.7046728001442,422.1246786999982,Menor que 55,Maior que 55,left-lower/right-greater,left,left,1,0.41319929994642735,None,,,,,,,,,,,,Relâmpago Marquin,10,2024-11-05_19h38.54.917,two-digit-number-comparison-task,2024.1.5,None,2024-11-05 19h39.09.627264 -0300,
62,greater,1,0,1,0,0,77,77,50,422.13682910008356,,,,,,,,,,422.12511870008893,422.13682910008356,422.13682910008356,422.13682910008356,424.1373046999797,424.1373046999797,424.5069075000938,Menor que 55,Maior que 55,left-lower/right-greater,right,right,1,0.3553198999725282,None,,,,,,,,,,,,Relâmpago Marquin,10,2024-11-05_19h38.54.917,two-digit-number-comparison-task,2024.1.5,None,2024-11-05 19h39.09.627264 -0300,
41,lower,1,0,1,0,0,78,78,30,424.5208048999775,,,,,,,,,,424.5073246001266,424.5208048999775,424.5208048999775,424.5208048999775,426.5205875001848,426.5205875001848,426.9234383001458,Menor que 55,Maior que 55,left-lower/right-greater,left,left,1,0.3874721999745816,None,,,,,,,,,,,,Relâmpago Marquin,10,2024-11-05_19h38.54.917,two-digit-number-comparison-task,2024.1.5,None,2024-11-05 19h39.09.627264 -0300,
36,lower,1,0,1,0,0,79,79,25,426.93707580002956,,,,,,,,,,426.9238580001984,426.93707580002956,426.93707580002956,426.93707580002956,428.9370591000188,428.9370591000188,429.42380290012807,Menor que 55,Maior que 55,left-lower/right-greater,left,left,1,0.47612470015883446,None,,,,,,,,,,,,Relâmpago Marquin,10,2024-11-05_19h38.54.917,two-digit-number-comparison-task,2024.1.5,None,2024-11-05 19h39.09.627264 -0300,
33,lower,1,0,1,0,0,80,80,22,429.4370007000398,,,,,,,,,,429.4242313001305,429.4370007000398,429.4370007000398,429.4370007000398,431.4367810001131,431.4367810001131,431.9067038001958,Menor que 55,Maior que 55,left-lower/right-greater,left,left,1,0.4555051999632269,None,,,,,,,,,,,,Relâmpago Marquin,10,2024-11-05_19h38.54.917,two-digit-number-comparison-task,2024.1.5,None,2024-11-05 19h39.09.627264 -0300,
34,lower,1,0,1,0,0,81,81,23,431.92031190008856,,,,,,,,,,431.90711430017836,431.92031190008856,431.92031190008856,431.92031190008856,433.9198661001865,433.9198661001865,434.2898478000425,Menor que 55,Maior que 55,left-lower/right-greater,left,left,1,0.35789509979076684,None,,,,,,,,,,,,Relâmpago Marquin,10,2024-11-05_19h38.54.917,two-digit-number-comparison-task,2024.1.5,None,2024-11-05 19h39.09.627264 -0300,
51,lower,1,0,1,0,0,82,82,40,434.3032668000087,,,,,,,,,,434.2902754000388,434.3032668000087,434.3032668000087,434.3032668000087,436.30318060005084,436.30318060005084,436.68968360009603,Menor que 55,Maior que 55,left-lower/right-greater,left,right,0,0.3819341999478638,None,,,,,,,,,,,,Relâmpago Marquin,10,2024-11-05_19h38.54.917,two-digit-number-comparison-task,2024.1.5,None,2024-11-05 19h39.09.627264 -0300,
13,lower,1,0,1,0,0,83,83,2,436.703322699992,,,,,,,,,,436.6901083001867,436.703322699992,436.703322699992,436.703322699992,438.703267800156,438.703267800156,439.1396077000536,Menor que 55,Maior que 55,left-lower/right-greater,left,left,1,0.42098759999498725,None,,,,,,,,,,,,Relâmpago Marquin,10,2024-11-05_19h38.54.917,two-digit-number-comparison-task,2024.1.5,None,2024-11-05 19h39.09.627264 -0300,
53,lower,1,0,1,0,0,84,84,42,439.1532397000119,,,,,,,,,,439.14003190002404,439.1532397000119,439.1532397000119,439.1532397000119,441.15305180009454,441.15305180009454,441.6730349001009,Menor que 55,Maior que 55,left-lower/right-greater,left,left,1,0.5080689999740571,None,,,,,,,,,,,,Relâmpago Marquin,10,2024-11-05_19h38.54.917,two-digit-number-comparison-task,2024.1.5,None,2024-11-05 19h39.09.627264 -0300,
73,greater,1,0,1,0,0,85,85,61,441.68603470013477,,,,,,,,,,441.6734490999952,441.68603470013477,441.68603470013477,441.68603470013477,443.686336300103,443.686336300103,444.0896257001441,Menor que 55,Maior que 55,left-lower/right-greater,right,right,1,0.39896770007908344,None,,,,,,,,,,,,Relâmpago Marquin,10,2024-11-05_19h38.54.917,two-digit-number-comparison-task,2024.1.5,None,2024-11-05 19h39.09.627264 -0300,
31,lower,1,0,1,0,0,86,86,20,444.1029879001435,,,,,,,,,,444.09005870018154,444.1029879001435,444.1029879001435,444.1029879001435,446.1026970001403,446.1026970001403,446.4896029001102,Menor que 55,Maior que 55,left-lower/right-greater,left,left,1,0.3818365999031812,None,,,,,,,,,,,,Relâmpago Marquin,10,2024-11-05_19h38.54.917,two-digit-number-comparison-task,2024.1.5,None,2024-11-05 19h39.09.627264 -0300,
83,greater,1,0,1,0,0,87,87,71,446.5025933000725,,,,,,,,,,446.49004020006396,446.5025933000725,446.5025933000725,446.5025933000725,448.50281900004484,448.50281900004484,448.9060558001511,Menor que 55,Maior que 55,left-lower/right-greater,right,right,1,0.38998800003901124,None,,,,,,,,,,,,Relâmpago Marquin,10,2024-11-05_19h38.54.917,two-digit-number-comparison-task,2024.1.5,None,2024-11-05 19h39.09.627264 -0300,
,,1,0,1,0,,,,,,,,,,,,,,,,,,,,,,,,,,,,,,448.9064011001028,448.9190541000571,448.9190541000571,448.9190541000571,464.7404827000573,,,,,,,Relâmpago Marquin,10,2024-11-05_19h38.54.917,two-digit-number-comparison-task,2024.1.5,None,2024-11-05 19h39.09.627264 -0300,
87,greater,2,0,2,0,0,0,0,75,465.35086080012843,,,,,,464.7408815000672,464.75240820017643,464.75240820017643,465.323801800143,465.3415534000378,465.35086080012843,465.35086080012843,465.35086080012843,467.3351917001419,467.3351917001419,467.9048640001565,Menor que 55,Maior que 55,left-lower/right-greater,right,right,1,0.5568891998846084,None,,,,,,,,,,,,Relâmpago Marquin,10,2024-11-05_19h38.54.917,two-digit-number-comparison-task,2024.1.5,None,2024-11-05 19h39.09.627264 -0300,
18,lower,2,0,2,0,0,1,1,7,467.91769730020314,,,,,,,,,,467.9054978999775,467.91769730020314,467.91769730020314,467.91769730020314,469.91812550020404,469.91812550020404,470.4077705000527,Menor que 55,Maior que 55,left-lower/right-greater,left,left,1,0.4863354000262916,None,,,,,,,,,,,,Relâmpago Marquin,10,2024-11-05_19h38.54.917,two-digit-number-comparison-task,2024.1.5,None,2024-11-05 19h39.09.627264 -0300,
74,greater,2,0,2,0,0,2,2,62,470.4178993999958,,,,,,,,,,470.40831710002385,470.4178993999958,470.4178993999958,470.4178993999958,472.4182593000587,472.4182593000587,472.85514650004916,Menor que 55,Maior que 55,left-lower/right-greater,right,right,1,0.433968200115487,None,,,,,,,,,,,,Relâmpago Marquin,10,2024-11-05_19h38.54.917,two-digit-number-comparison-task,2024.1.5,None,2024-11-05 19h39.09.627264 -0300,
46,lower,2,0,2,0,0,3,3,35,472.86823470005766,,,,,,,,,,472.85558059997857,472.86823470005766,472.86823470005766,472.86823470005766,474.86842150008306,474.86842150008306,475.34007320017554,Menor que 55,Maior que 55,left-lower/right-greater,left,left,1,0.46388930012471974,None,,,,,,,,,,,,Relâmpago Marquin,10,2024-11-05_19h38.54.917,two-digit-number-comparison-task,2024.1.5,None,2024-11-05 19h39.09.627264 -0300,
67,greater,2,0,2,0,0,4,4,55,475.3520093001425,,,,,,,,,,475.3407195000909,475.3520093001425,475.3520093001425,475.3520093001425,477.3511905001942,477.3511905001942,477.75593640003353,Menor que 55,Maior que 55,left-lower/right-greater,right,right,1,0.39783730008639395,None,,,,,,,,,,,,Relâmpago Marquin,10,2024-11-05_19h38.54.917,two-digit-number-comparison-task,2024.1.5,None,2024-11-05 19h39.09.627264 -0300,
50,lower,2,0,2,0,0,5,5,39,477.7678759000264,,,,,,,,,,477.7563569000922,477.7678759000264,477.7678759000264,477.7678759000264,479.76818970008753,479.76818970008753,480.2049472001381,Menor que 55,Maior que 55,left-lower/right-greater,left,right,0,0.428194000152871,None,,,,,,,,,,,,Relâmpago Marquin,10,2024-11-05_19h38.54.917,two-digit-number-comparison-task,2024.1.5,None,2024-11-05 19h39.09.627264 -0300,
60,greater,2,0,2,0,0,6,6,48,480.2180062001571,,,,,,,,,,480.2053602000233,480.2180062001571,480.2180062001571,480.2180062001571,482.2176393000409,482.2176393000409,482.6207458002027,Menor que 55,Maior que 55,left-lower/right-greater,right,right,1,0.3949861000292003,None,,,,,,,,,,,,Relâmpago Marquin,10,2024-11-05_19h38.54.917,two-digit-number-comparison-task,2024.1.5,None,2024-11-05 19h39.09.627264 -0300,
36,lower,2,0,2,0,0,7,7,25,482.63432670012116,,,,,,,,,,482.6211631000042,482.63432670012116,482.63432670012116,482.63432670012116,484.6343157000374,484.6343157000374,485.0375218000263,Menor que 55,Maior que 55,left-lower/right-greater,left,left,1,0.3945710000116378,None,,,,,,,,,,,,Relâmpago Marquin,10,2024-11-05_19h38.54.917,two-digit-number-comparison-task,2024.1.5,None,2024-11-05 19h39.09.627264 -0300,
21,lower,2,0,2,0,0,8,8,10,485.0510053001344,,,,,,,,,,485.0379679000471,485.0510053001344,485.0510053001344,485.0510053001344,487.0514785000123,487.0514785000123,487.4046048000455,Menor que 55,Maior que 55,left-lower/right-greater,left,left,1,0.3449918001424521,None,,,,,,,,,,,,Relâmpago Marquin,10,2024-11-05_19h38.54.917,two-digit-number-comparison-task,2024.1.5,None,2024-11-05 19h39.09.627264 -0300,
80,greater,2,0,2,0,0,9,9,68,487.41760130017065,,,,,,,,,,487.4050504001789,487.41760130017065,487.41760130017065,487.41760130017065,489.4173175999895,489.4173175999895,489.8373476001434,Menor que 55,Maior que 55,left-lower/right-greater,right,right,1,0.418931599939242,None,,,,,,,,,,,,Relâmpago Marquin,10,2024-11-05_19h38.54.917,two-digit-number-comparison-task,2024.1.5,None,2024-11-05 19h39.09.627264 -0300,
19,lower,2,0,2,0,0,10,10,8,489.8507703000214,,,,,,,,,,489.83783330000006,489.8507703000214,489.8507703000214,489.8507703000214,491.85054920008406,491.85054920008406,492.2373007000424,Menor que 55,Maior que 55,left-lower/right-greater,left,left,1,0.3857625999953598,None,,,,,,,,,,,,Relâmpago Marquin,10,2024-11-05_19h38.54.917,two-digit-number-comparison-task,2024.1.5,None,2024-11-05 19h39.09.627264 -0300,
35,lower,2,0,2,0,0,11,11,24,492.2505353000015,,,,,,,,,,492.23772460012697,492.2505353000015,492.2505353000015,492.2505353000015,494.2506384002045,494.2506384002045,494.72050689999014,Menor que 55,Maior que 55,left-lower/right-greater,left,left,1,0.4580635998863727,None,,,,,,,,,,,,Relâmpago Marquin,10,2024-11-05_19h38.54.917,two-digit-number-comparison-task,2024.1.5,None,2024-11-05 19h39.09.627264 -0300,
29,lower,2,0,2,0,0,12,12,18,494.7337647001259,,,,,,,,,,494.7209642000962,494.7337647001259,494.7337647001259,494.7337647001259,496.7338710001204,496.7338710001204,497.1207706001587,Menor que 55,Maior que 55,left-lower/right-greater,left,left,1,0.3825203999876976,None,,,,,,,,,,,,Relâmpago Marquin,10,2024-11-05_19h38.54.917,two-digit-number-comparison-task,2024.1.5,None,2024-11-05 19h39.09.627264 -0300,
64,greater,2,0,2,0,0,13,13,52,497.1337409000844,,,,,,,,,,497.12137720012106,497.1337409000844,497.1337409000844,497.1337409000844,499.13344600005075,499.13344600005075,499.65447450010106,Menor que 55,Maior que 55,left-lower/right-greater,right,right,1,0.5188202999997884,None,,,,,,,,,,,,Relâmpago Marquin,10,2024-11-05_19h38.54.917,two-digit-number-comparison-task,2024.1.5,None,2024-11-05 19h39.09.627264 -0300,
25,lower,2,0,2,0,0,14,14,14,499.6668386000674,,,,,,,,,,499.6549490999896,499.6668386000674,499.6668386000674,499.6668386000674,501.6667161001824,501.6667161001824,502.08828560006805,Menor que 55,Maior que 55,left-lower/right-greater,left,left,1,0.4173392001539469,None,,,,,,,,,,,,Relâmpago Marquin,10,2024-11-05_19h38.54.917,two-digit-number-comparison-task,2024.1.5,None,2024-11-05 19h39.09.627264 -0300,
96,greater,2,0,2,0,0,15,15,84,502.1003108001314,,,,,,,,,,502.0890397001058,502.1003108001314,502.1003108001314,502.1003108001314,504.10014200001024,504.10014200001024,504.5545171999838,Menor que 55,Maior que 55,left-lower/right-greater,right,right,1,0.4399012001231313,None,,,,,,,,,,,,Relâmpago Marquin,10,2024-11-05_19h38.54.917,two-digit-number-comparison-task,2024.1.5,None,2024-11-05 19h39.09.627264 -0300,
40,lower,2,0,2,0,0,16,16,29,504.56663490016945,,,,,,,,,,504.55497350008227,504.56663490016945,504.56663490016945,504.56663490016945,506.5664324001409,506.5664324001409,507.1032523000613,Menor que 55,Maior que 55,left-lower/right-greater,left,left,1,0.5334000000730157,None,,,,,,,,,,,,Relâmpago Marquin,10,2024-11-05_19h38.54.917,two-digit-number-comparison-task,2024.1.5,None,2024-11-05 19h39.09.627264 -0300,
94,greater,2,0,2,0,0,17,17,82,507.1164246001281,,,,,,,,,,507.1036952000577,507.1164246001281,507.1164246001281,507.1164246001281,509.1165726000909,509.1165726000909,509.53633869998157,Menor que 55,Maior que 55,left-lower/right-greater,right,right,1,0.416173700010404,None,,,,,,,,,,,,Relâmpago Marquin,10,2024-11-05_19h38.54.917,two-digit-number-comparison-task,2024.1.5,None,2024-11-05 19h39.09.627264 -0300,
61,greater,2,0,2,0,0,18,18,49,509.55013640015386,,,,,,,,,,509.5367619001772,509.55013640015386,509.55013640015386,509.55013640015386,511.5498172000516,511.5498172000516,511.96954540000297,Menor que 55,Maior que 55,left-lower/right-greater,right,right,1,0.4154321998357773,None,,,,,,,,,,,,Relâmpago Marquin,10,2024-11-05_19h38.54.917,two-digit-number-comparison-task,2024.1.5,None,2024-11-05 19h39.09.627264 -0300,
38,lower,2,0,2,0,0,19,19,27,511.98309680004604,,,,,,,,,,511.9699774000328,511.98309680004604,511.98309680004604,511.98309680004604,513.9829869000241,513.9829869000241,514.3533853001427,Menor que 55,Maior que 55,left-lower/right-greater,left,left,1,0.3657694000285119,None,,,,,,,,,,,,Relâmpago Marquin,10,2024-11-05_19h38.54.917,two-digit-number-comparison-task,2024.1.5,None,2024-11-05 19h39.09.627264 -0300,
13,lower,2,0,2,0,0,20,20,2,514.3664102000184,,,,,,,,,,514.3540292000398,514.3664102000184,514.3664102000184,514.3664102000184,516.3659911002032,516.3659911002032,516.7858981001191,Menor que 55,Maior que 55,left-lower/right-greater,left,left,1,0.4139877001289278,None,,,,,,,,,,,,Relâmpago Marquin,10,2024-11-05_19h38.54.917,two-digit-number-comparison-task,2024.1.5,None,2024-11-05 19h39.09.627264 -0300,
31,lower,2,0,2,0,0,21,21,20,516.7992649001535,,,,,,,,,,516.7863297001459,516.7992649001535,516.7992649001535,516.7992649001535,518.799545200076,518.799545200076,519.2365123999771,Menor que 55,Maior que 55,left-lower/right-greater,left,left,1,0.42100160010159016,None,,,,,,,,,,,,Relâmpago Marquin,10,2024-11-05_19h38.54.917,two-digit-number-comparison-task,2024.1.5,None,2024-11-05 19h39.09.627264 -0300,
98,greater,2,0,2,0,0,22,22,86,519.2493310000282,,,,,,,,,,519.2369351000525,519.2493310000282,519.2493310000282,519.2493310000282,521.2490938000847,521.2490938000847,521.669234600151,Menor que 55,Maior que 55,left-lower/right-greater,right,right,1,0.40278380014933646,None,,,,,,,,,,,,Relâmpago Marquin,10,2024-11-05_19h38.54.917,two-digit-number-comparison-task,2024.1.5,None,2024-11-05 19h39.09.627264 -0300,
63,greater,2,0,2,0,0,23,23,51,521.6821399000473,,,,,,,,,,521.6696715001017,521.6821399000473,521.6821399000473,521.6821399000473,523.6822337000631,523.6822337000631,524.1867792999838,Menor que 55,Maior que 55,left-lower/right-greater,right,right,1,0.497700999956578,None,,,,,,,,,,,,Relâmpago Marquin,10,2024-11-05_19h38.54.917,two-digit-number-comparison-task,2024.1.5,None,2024-11-05 19h39.09.627264 -0300,
99,greater,2,0,2,0,0,24,24,87,524.1991116001736,,,,,,,,,,524.1872255001217,524.1991116001736,524.1991116001736,524.1991116001736,526.1989147001877,526.1989147001877,526.6189320001286,Menor que 55,Maior que 55,left-lower/right-greater,right,right,1,0.4143389998935163,None,,,,,,,,,,,,Relâmpago Marquin,10,2024-11-05_19h38.54.917,two-digit-number-comparison-task,2024.1.5,None,2024-11-05 19h39.09.627264 -0300,
81,greater,2,0,2,0,0,25,25,69,526.6320218001492,,,,,,,,,,526.619366500061,526.6320218001492,526.6320218001492,526.6320218001492,528.6322143001016,528.6322143001016,529.0538645000197,Menor que 55,Maior que 55,left-lower/right-greater,right,right,1,0.4203107999637723,None,,,,,,,,,,,,Relâmpago Marquin,10,2024-11-05_19h38.54.917,two-digit-number-comparison-task,2024.1.5,None,2024-11-05 19h39.09.627264 -0300,
28,lower,2,0,2,0,0,26,26,17,529.0655375001952,,,,,,,,,,529.0543111001607,529.0655375001952,529.0655375001952,529.0655375001952,531.0657764000352,531.0657764000352,531.4852915001102,Menor que 55,Maior que 55,left-lower/right-greater,left,left,1,0.41066700010560453,None,,,,,,,,,,,,Relâmpago Marquin,10,2024-11-05_19h38.54.917,two-digit-number-comparison-task,2024.1.5,None,2024-11-05 19h39.09.627264 -0300,
65,greater,2,0,2,0,0,27,27,53,531.4986215000972,,,,,,,,,,531.4857993000187,531.4986215000972,531.4986215000972,531.4986215000972,533.4983334001154,533.4983334001154,533.9682212001644,Menor que 55,Maior que 55,left-lower/right-greater,right,right,1,0.4593245000578463,None,,,,,,,,,,,,Relâmpago Marquin,10,2024-11-05_19h38.54.917,two-digit-number-comparison-task,2024.1.5,None,2024-11-05 19h39.09.627264 -0300,
33,lower,2,0,2,0,0,28,28,22,533.9818669001106,,,,,,,,,,533.9687730001751,533.9818669001106,533.9818669001106,533.9818669001106,535.9816378999967,535.9816378999967,536.3851870000362,Menor que 55,Maior que 55,left-lower/right-greater,left,left,1,0.39077149983495474,None,,,,,,,,,,,,Relâmpago Marquin,10,2024-11-05_19h38.54.917,two-digit-number-comparison-task,2024.1.5,None,2024-11-05 19h39.09.627264 -0300,
52,lower,2,0,2,0,0,29,29,41,536.3983511000406,,,,,,,,,,536.3856375999749,536.3983511000406,536.3983511000406,536.3983511000406,538.3981623,538.3981623,538.9680398001801,Menor que 55,Maior que 55,left-lower/right-greater,left,left,1,0.5659287001471967,None,,,,,,,,,,,,Relâmpago Marquin,10,2024-11-05_19h38.54.917,two-digit-number-comparison-task,2024.1.5,None,2024-11-05 19h39.09.627264 -0300,
79,greater,2,0,2,0,0,30,30,67,538.981650599977,,,,,,,,,,538.9684599000029,538.981650599977,538.981650599977,538.981650599977,540.9815740000922,540.9815740000922,541.4680697000585,Menor que 55,Maior que 55,left-lower/right-greater,right,right,1,0.48004599986597896,None,,,,,,,,,,,,Relâmpago Marquin,10,2024-11-05_19h38.54.917,two-digit-number-comparison-task,2024.1.5,None,2024-11-05 19h39.09.627264 -0300,
59,greater,2,0,2,0,0,31,31,47,541.4812157000415,,,,,,,,,,541.4685761001892,541.4812157000415,541.4812157000415,541.4812157000415,543.4817869002,543.4817869002,544.2178913999815,Menor que 55,Maior que 55,left-lower/right-greater,right,right,1,0.7230614998843521,None,,,,,,,,,,,,Relâmpago Marquin,10,2024-11-05_19h38.54.917,two-digit-number-comparison-task,2024.1.5,None,2024-11-05 19h39.09.627264 -0300,
90,greater,2,0,2,0,0,32,32,78,544.2316050000954,,,,,,,,,,544.2183211001102,544.2316050000954,544.2316050000954,544.2316050000954,546.2315478001256,546.2315478001256,546.667905600043,Menor que 55,Maior que 55,left-lower/right-greater,right,right,1,0.4201372000388801,None,,,,,,,,,,,,Relâmpago Marquin,10,2024-11-05_19h38.54.917,two-digit-number-comparison-task,2024.1.5,None,2024-11-05 19h39.09.627264 -0300,
84,greater,2,0,2,0,0,33,33,72,546.6811553000007,,,,,,,,,,546.6683315001428,546.6811553000007,546.6811553000007,546.6811553000007,548.6810072001535,548.6810072001535,549.1179494999815,Menor que 55,Maior que 55,left-lower/right-greater,right,right,1,0.4348846999928355,None,,,,,,,,,,,,Relâmpago Marquin,10,2024-11-05_19h38.54.917,two-digit-number-comparison-task,2024.1.5,None,2024-11-05 19h39.09.627264 -0300,
95,greater,2,0,2,0,0,34,34,83,549.1311668001581,,,,,,,,,,549.1184203000739,549.1311668001581,549.1311668001581,549.1311668001581,551.1310406001285,551.1310406001285,551.5178011001553,Menor que 55,Maior que 55,left-lower/right-greater,right,right,1,0.3850879000965506,None,,,,,,,,,,,,Relâmpago Marquin,10,2024-11-05_19h38.54.917,two-digit-number-comparison-task,2024.1.5,None,2024-11-05 19h39.09.627264 -0300,
30,lower,2,0,2,0,0,35,35,19,551.531231299974,,,,,,,,,,551.5182209999766,551.531231299974,551.531231299974,551.531231299974,553.5308968999889,553.5308968999889,554.0168046001345,Menor que 55,Maior que 55,left-lower/right-greater,left,left,1,0.47419520001858473,None,,,,,,,,,,,,Relâmpago Marquin,10,2024-11-05_19h38.54.917,two-digit-number-comparison-task,2024.1.5,None,2024-11-05 19h39.09.627264 -0300,
58,greater,2,0,2,0,0,36,36,46,554.0304394999985,,,,,,,,,,554.0172194000334,554.0304394999985,554.0304394999985,554.0304394999985,556.0307919001207,556.0307919001207,556.5000698000658,Menor que 55,Maior que 55,left-lower/right-greater,right,right,1,0.4535226000007242,None,,,,,,,,,,,,Relâmpago Marquin,10,2024-11-05_19h38.54.917,two-digit-number-comparison-task,2024.1.5,None,2024-11-05 19h39.09.627264 -0300,
34,lower,2,0,2,0,0,37,37,23,556.5135753001086,,,,,,,,,,556.5005081000272,556.5135753001086,556.5135753001086,556.5135753001086,558.5134658999741,558.5134658999741,558.9506310999859,Menor que 55,Maior que 55,left-lower/right-greater,left,left,1,0.42719939979724586,None,,,,,,,,,,,,Relâmpago Marquin,10,2024-11-05_19h38.54.917,two-digit-number-comparison-task,2024.1.5,None,2024-11-05 19h39.09.627264 -0300,
76,greater,2,0,2,0,0,38,38,64,558.963515000185,,,,,,,,,,558.9511394000147,558.963515000185,558.963515000185,558.963515000185,560.9651987000834,560.9651987000834,561.4039694000967,Menor que 55,Maior que 55,left-lower/right-greater,right,right,1,0.4318661999423057,None,,,,,,,,,,,,Relâmpago Marquin,10,2024-11-05_19h38.54.917,two-digit-number-comparison-task,2024.1.5,None,2024-11-05 19h39.09.627264 -0300,
91,greater,2,0,2,0,0,39,39,79,561.429390600184,,,,,,,,,,561.4048328001518,561.429390600184,561.429390600184,561.429390600184,563.4142515000422,563.4142515000422,563.8715193001553,Menor que 55,Maior que 55,left-lower/right-greater,right,right,1,0.45395870017819107,None,,,,,,,,,,,,Relâmpago Marquin,10,2024-11-05_19h38.54.917,two-digit-number-comparison-task,2024.1.5,None,2024-11-05 19h39.09.627264 -0300,
89,greater,2,0,2,0,0,40,40,77,563.8980821999721,,,,,,,,,,563.8722502000164,563.8980821999721,563.8980821999721,563.8980821999721,565.881698000012,565.881698000012,566.339337100042,Menor que 55,Maior que 55,left-lower/right-greater,right,right,1,0.44264929997734725,None,,,,,,,,,,,,Relâmpago Marquin,10,2024-11-05_19h38.54.917,two-digit-number-comparison-task,2024.1.5,None,2024-11-05 19h39.09.627264 -0300,
49,lower,2,0,2,0,0,41,41,38,566.364899400156,,,,,,,,,,566.3403673002031,566.364899400156,566.364899400156,566.364899400156,568.3468484000769,568.3468484000769,569.1186881000176,Menor que 55,Maior que 55,left-lower/right-greater,left,left,1,0.762592300074175,None,,,,,,,,,,,,Relâmpago Marquin,10,2024-11-05_19h38.54.917,two-digit-number-comparison-task,2024.1.5,None,2024-11-05 19h39.09.627264 -0300,
75,greater,2,0,2,0,0,42,42,63,569.1296082001645,,,,,,,,,,569.1193036001641,569.1296082001645,569.1296082001645,569.1296082001645,571.1302017001435,571.1302017001435,571.5351406000555,Menor que 55,Maior que 55,left-lower/right-greater,right,right,1,0.3942863999400288,None,,,,,,,,,,,,Relâmpago Marquin,10,2024-11-05_19h38.54.917,two-digit-number-comparison-task,2024.1.5,None,2024-11-05 19h39.09.627264 -0300,
45,lower,2,0,2,0,0,43,43,34,571.5464257001877,,,,,,,,,,571.5357346001547,571.5464257001877,571.5464257001877,571.5464257001877,573.5469806001056,573.5469806001056,574.0684872001875,Menor que 55,Maior que 55,left-lower/right-greater,left,left,1,0.51504319999367,None,,,,,,,,,,,,Relâmpago Marquin,10,2024-11-05_19h38.54.917,two-digit-number-comparison-task,2024.1.5,None,2024-11-05 19h39.09.627264 -0300,
83,greater,2,0,2,0,0,44,44,71,574.0797747999895,,,,,,,,,,574.0689125000499,574.0797747999895,574.0797747999895,574.0797747999895,576.0790682001971,576.0790682001971,576.8001247001812,Menor que 55,Maior que 55,left-lower/right-greater,right,right,1,0.7167130000889301,None,,,,,,,,,,,,Relâmpago Marquin,10,2024-11-05_19h38.54.917,two-digit-number-comparison-task,2024.1.5,None,2024-11-05 19h39.09.627264 -0300,
26,lower,2,0,2,0,0,45,45,15,576.8127842000686,,,,,,,,,,576.8005641000345,576.8127842000686,576.8127842000686,576.8127842000686,578.8124131001532,578.8124131001532,579.2822597001214,Menor que 55,Maior que 55,left-lower/right-greater,left,left,1,0.4559398000128567,None,,,,,,,,,,,,Relâmpago Marquin,10,2024-11-05_19h38.54.917,two-digit-number-comparison-task,2024.1.5,None,2024-11-05 19h39.09.627264 -0300,
69,greater,2,0,2,0,0,46,46,57,579.2961921000388,,,,,,,,,,579.2827008001041,579.2961921000388,579.2961921000388,579.2961921000388,581.2975930999964,581.2975930999964,581.7496141002048,Menor que 55,Maior que 55,left-lower/right-greater,right,right,1,0.44273280003108084,None,,,,,,,,,,,,Relâmpago Marquin,10,2024-11-05_19h38.54.917,two-digit-number-comparison-task,2024.1.5,None,2024-11-05 19h39.09.627264 -0300,
85,greater,2,0,2,0,0,47,47,73,581.7628981000744,,,,,,,,,,581.7500837000553,581.7628981000744,581.7628981000744,581.7628981000744,583.7622460001148,583.7622460001148,584.1989107001573,Menor que 55,Maior que 55,left-lower/right-greater,right,right,1,0.42625839984975755,None,,,,,,,,,,,,Relâmpago Marquin,10,2024-11-05_19h38.54.917,two-digit-number-comparison-task,2024.1.5,None,2024-11-05 19h39.09.627264 -0300,
73,greater,2,0,2,0,0,48,48,61,584.2128289001994,,,,,,,,,,584.1994223000947,584.2128289001994,584.2128289001994,584.2128289001994,586.2122043999843,586.2122043999843,586.6652840001043,Menor que 55,Maior que 55,left-lower/right-greater,right,right,1,0.44018130004405975,None,,,,,,,,,,,,Relâmpago Marquin,10,2024-11-05_19h38.54.917,two-digit-number-comparison-task,2024.1.5,None,2024-11-05 19h39.09.627264 -0300,
23,lower,2,0,2,0,0,49,49,12,586.6787680000998,,,,,,,,,,586.6656994000077,586.6787680000998,586.6787680000998,586.6787680000998,588.6789777001832,588.6789777001832,589.0999882000033,Menor que 55,Maior que 55,left-lower/right-greater,left,left,1,0.40511539997532964,None,,,,,,,,,,,,Relâmpago Marquin,10,2024-11-05_19h38.54.917,two-digit-number-comparison-task,2024.1.5,None,2024-11-05 19h39.09.627264 -0300,
15,lower,2,0,2,0,0,50,50,4,589.1120770000853,,,,,,,,,,589.1007066001184,589.1120770000853,589.1120770000853,589.1120770000853,591.1138455001637,591.1138455001637,591.5021003000438,Menor que 55,Maior que 55,left-lower/right-greater,left,left,1,0.379222400020808,None,,,,,,,,,,,,Relâmpago Marquin,10,2024-11-05_19h38.54.917,two-digit-number-comparison-task,2024.1.5,None,2024-11-05 19h39.09.627264 -0300,
11,lower,2,0,2,0,0,51,51,0,591.5133680000436,,,,,,,,,,591.5026263999753,591.5133680000436,591.5133680000436,591.5133680000436,593.5135458000004,593.5135458000004,593.9341148000676,Menor que 55,Maior que 55,left-lower/right-greater,left,left,1,0.4028465999290347,None,,,,,,,,,,,,Relâmpago Marquin,10,2024-11-05_19h38.54.917,two-digit-number-comparison-task,2024.1.5,None,2024-11-05 19h39.09.627264 -0300,
12,lower,2,0,2,0,0,52,52,1,593.9454754001927,,,,,,,,,,593.9345673001371,593.9454754001927,593.9454754001927,593.9454754001927,595.94549990003,595.94549990003,596.382255700184,Menor que 55,Maior que 55,left-lower/right-greater,left,left,1,0.4340782000217587,None,,,,,,,,,,,,Relâmpago Marquin,10,2024-11-05_19h38.54.917,two-digit-number-comparison-task,2024.1.5,None,2024-11-05 19h39.09.627264 -0300,
77,greater,2,0,2,0,0,53,53,65,596.3960179002024,,,,,,,,,,596.3826960001606,596.3960179002024,596.3960179002024,596.3960179002024,598.3956463001668,598.3956463001668,598.8984376001172,Menor que 55,Maior que 55,left-lower/right-greater,right,right,1,0.48984369984827936,None,,,,,,,,,,,,Relâmpago Marquin,10,2024-11-05_19h38.54.917,two-digit-number-comparison-task,2024.1.5,None,2024-11-05 19h39.09.627264 -0300,
88,greater,2,0,2,0,0,54,54,76,598.91221520002,,,,,,,,,,598.8988746001851,598.91221520002,598.91221520002,598.91221520002,600.911674400093,600.911674400093,601.3317019999959,Menor que 55,Maior que 55,left-lower/right-greater,right,right,1,0.41273380001075566,None,,,,,,,,,,,,Relâmpago Marquin,10,2024-11-05_19h38.54.917,two-digit-number-comparison-task,2024.1.5,None,2024-11-05 19h39.09.627264 -0300,
44,lower,2,0,2,0,0,55,55,33,601.3454661001451,,,,,,,,,,601.3321239000652,601.3454661001451,601.3454661001451,601.3454661001451,603.3449171001557,603.3449171001557,603.8496923001949,Menor que 55,Maior que 55,left-lower/right-greater,left,right,0,0.4997166998218745,None,,,,,,,,,,,,Relâmpago Marquin,10,2024-11-05_19h38.54.917,two-digit-number-comparison-task,2024.1.5,None,2024-11-05 19h39.09.627264 -0300,
71,greater,2,0,2,0,0,56,56,59,603.8615099000745,,,,,,,,,,603.850154099986,603.8615099000745,603.8615099000745,603.8615099000745,605.8616149001755,605.8616149001755,606.3650977001525,Menor que 55,Maior que 55,left-lower/right-greater,right,right,1,0.49404189991764724,None,,,,,,,,,,,,Relâmpago Marquin,10,2024-11-05_19h38.54.917,two-digit-number-comparison-task,2024.1.5,None,2024-11-05 19h39.09.627264 -0300,
54,lower,2,0,2,0,0,57,57,43,606.3784334000666,,,,,,,,,,606.3655424001627,606.3784334000666,606.3784334000666,606.3784334000666,608.3788884000387,608.3788884000387,609.1653267000802,Menor que 55,Maior que 55,left-lower/right-greater,left,left,1,0.7847117001656443,None,,,,,,,,,,,,Relâmpago Marquin,10,2024-11-05_19h38.54.917,two-digit-number-comparison-task,2024.1.5,None,2024-11-05 19h39.09.627264 -0300,
22,lower,2,0,2,0,0,58,58,11,609.1780515999999,,,,,,,,,,609.1658672001213,609.1780515999999,609.1780515999999,609.1780515999999,611.1775603999849,611.1775603999849,611.7308589001186,Menor que 55,Maior que 55,left-lower/right-greater,left,left,1,0.5474716001190245,None,,,,,,,,,,,,Relâmpago Marquin,10,2024-11-05_19h38.54.917,two-digit-number-comparison-task,2024.1.5,None,2024-11-05 19h39.09.627264 -0300,
93,greater,2,0,2,0,0,59,59,81,611.7445722999983,,,,,,,,,,611.7312740001362,611.7445722999983,611.7445722999983,611.7445722999983,613.7440969001036,613.7440969001036,614.1648477001581,Menor que 55,Maior que 55,left-lower/right-greater,right,right,1,0.41950240009464324,None,,,,,,,,,,,,Relâmpago Marquin,10,2024-11-05_19h38.54.917,two-digit-number-comparison-task,2024.1.5,None,2024-11-05 19h39.09.627264 -0300,
16,lower,2,0,2,0,0,60,60,5,614.1776196002029,,,,,,,,,,614.1652776000556,614.1776196002029,614.1776196002029,614.1776196002029,616.1771412000526,616.1771412000526,616.5802914001979,Menor que 55,Maior que 55,left-lower/right-greater,left,left,1,0.3863742998801172,None,,,,,,,,,,,,Relâmpago Marquin,10,2024-11-05_19h38.54.917,two-digit-number-comparison-task,2024.1.5,None,2024-11-05 19h39.09.627264 -0300,
62,greater,2,0,2,0,0,61,61,50,616.5938885000069,,,,,,,,,,616.5807135000359,616.5938885000069,616.5938885000069,616.5938885000069,618.5946368000004,618.5946368000004,619.0659350000788,Menor que 55,Maior que 55,left-lower/right-greater,right,right,1,0.4578291999641806,None,,,,,,,,,,,,Relâmpago Marquin,10,2024-11-05_19h38.54.917,two-digit-number-comparison-task,2024.1.5,None,2024-11-05 19h39.09.627264 -0300,
82,greater,2,0,2,0,0,62,62,70,619.077790700132,,,,,,,,,,619.0664027000312,619.077790700132,619.077790700132,619.077790700132,621.0775307000149,621.0775307000149,621.564076300012,Menor que 55,Maior que 55,left-lower/right-greater,right,right,1,0.47867039986886084,None,,,,,,,,,,,,Relâmpago Marquin,10,2024-11-05_19h38.54.917,two-digit-number-comparison-task,2024.1.5,None,2024-11-05 19h39.09.627264 -0300,
