English,Portuguese,Inupiaq,initial_presentation_cycles.thisRepN,initial_presentation_cycles.thisTrialN,initial_presentation_cycles.thisN,initial_presentation_cycles.thisIndex,initial_presentation_trials.thisRepN,initial_presentation_trials.thisTrialN,initial_presentation_trials.thisN,initial_presentation_trials.thisIndex,practice_phase_blocks.thisRepN,practice_phase_blocks.thisTrialN,practice_phase_blocks.thisN,practice_phase_blocks.thisIndex,practice_phase_cycles.thisRepN,practice_phase_cycles.thisTrialN,practice_phase_cycles.thisN,practice_phase_cycles.thisIndex,practice_phase_trials.thisRepN,practice_phase_trials.thisTrialN,practice_phase_trials.thisN,practice_phase_trials.thisIndex,final_test_trials.thisRepN,final_test_trials.thisTrialN,final_test_trials.thisN,final_test_trials.thisIndex,instr_msg.started,instr_resp.started,instr_resp.keys,instr_resp.rt,distractor_msg.started,instr_msg_2.started,instr_resp_2.started,instr_resp_2.keys,instr_resp_2.rt,cue_practice.started,target_practice.started,resp_practice.started,condition_name.started,Inupiaq_cue,current_condition,resp_practice,instr_msg_3.started,instr_resp_3.started,instr_resp_3.keys,instr_resp_3.rt,cue_final.started,resp_final.started,target_final.started,resp_final,thanks_msg.started,participant,session,date,expName,psychopyVersion,frameRate,
,,,,,,,,,,,,,,,,,,,,,,,,,,,49.122931300000346,49.122931300000346,space,11.594282199999725,,,,,,,,,,,,,,,,,,,,,,,001,2022-07-26_10h59.41.382,finley_et_al,2022.2.1,None,
dust,pó,apyuq,0,0,0,0,0,0,0,3,,,,,,,,,,,,,,,,,,,,,,,,,,,,,,,,,,,,,,,,,,,001,2022-07-26_10h59.41.382,finley_et_al,2022.2.1,None,
cliff,penhasco,ikpik,0,0,0,0,0,1,1,1,,,,,,,,,,,,,,,,,,,,,,,,,,,,,,,,,,,,,,,,,,,001,2022-07-26_10h59.41.382,finley_et_al,2022.2.1,None,
boot,bota,kamik,0,0,0,0,0,2,2,0,,,,,,,,,,,,,,,,,,,,,,,,,,,,,,,,,,,,,,,,,,,001,2022-07-26_10h59.41.382,finley_et_al,2022.2.1,None,
thread,fio,ivalu,0,0,0,0,0,3,3,11,,,,,,,,,,,,,,,,,,,,,,,,,,,,,,,,,,,,,,,,,,,001,2022-07-26_10h59.41.382,finley_et_al,2022.2.1,None,
kidney,rim,taqtu,0,0,0,0,0,4,4,5,,,,,,,,,,,,,,,,,,,,,,,,,,,,,,,,,,,,,,,,,,,001,2022-07-26_10h59.41.382,finley_et_al,2022.2.1,None,
mark,marca,aglak,0,0,0,0,0,5,5,6,,,,,,,,,,,,,,,,,,,,,,,,,,,,,,,,,,,,,,,,,,,001,2022-07-26_10h59.41.382,finley_et_al,2022.2.1,None,
sled,trenó,uniat,0,0,0,0,0,6,6,8,,,,,,,,,,,,,,,,,,,,,,,,,,,,,,,,,,,,,,,,,,,001,2022-07-26_10h59.41.382,finley_et_al,2022.2.1,None,
rainbow,arco-íris,nigaq,0,0,0,0,0,7,7,7,,,,,,,,,,,,,,,,,,,,,,,,,,,,,,,,,,,,,,,,,,,001,2022-07-26_10h59.41.382,finley_et_al,2022.2.1,None,
tea,chá,saiyu,0,0,0,0,0,8,8,10,,,,,,,,,,,,,,,,,,,,,,,,,,,,,,,,,,,,,,,,,,,001,2022-07-26_10h59.41.382,finley_et_al,2022.2.1,None,
snail,lesma,uvixu,0,0,0,0,0,9,9,9,,,,,,,,,,,,,,,,,,,,,,,,,,,,,,,,,,,,,,,,,,,001,2022-07-26_10h59.41.382,finley_et_al,2022.2.1,None,
duck,pato,mitiq,0,0,0,0,0,10,10,2,,,,,,,,,,,,,,,,,,,,,,,,,,,,,,,,,,,,,,,,,,,001,2022-07-26_10h59.41.382,finley_et_al,2022.2.1,None,
heaven,paraíso,qixak,0,0,0,0,0,11,11,4,,,,,,,,,,,,,,,,,,,,,,,,,,,,,,,,,,,,,,,,,,,001,2022-07-26_10h59.41.382,finley_et_al,2022.2.1,None,
dust,pó,apyuq,1,0,1,0,0,0,0,3,,,,,,,,,,,,,,,,,,,,,,,,,,,,,,,,,,,,,,,,,,,001,2022-07-26_10h59.41.382,finley_et_al,2022.2.1,None,
cliff,penhasco,ikpik,1,0,1,0,0,1,1,1,,,,,,,,,,,,,,,,,,,,,,,,,,,,,,,,,,,,,,,,,,,001,2022-07-26_10h59.41.382,finley_et_al,2022.2.1,None,
boot,bota,kamik,1,0,1,0,0,2,2,0,,,,,,,,,,,,,,,,,,,,,,,,,,,,,,,,,,,,,,,,,,,001,2022-07-26_10h59.41.382,finley_et_al,2022.2.1,None,
thread,fio,ivalu,1,0,1,0,0,3,3,11,,,,,,,,,,,,,,,,,,,,,,,,,,,,,,,,,,,,,,,,,,,001,2022-07-26_10h59.41.382,finley_et_al,2022.2.1,None,
kidney,rim,taqtu,1,0,1,0,0,4,4,5,,,,,,,,,,,,,,,,,,,,,,,,,,,,,,,,,,,,,,,,,,,001,2022-07-26_10h59.41.382,finley_et_al,2022.2.1,None,
mark,marca,aglak,1,0,1,0,0,5,5,6,,,,,,,,,,,,,,,,,,,,,,,,,,,,,,,,,,,,,,,,,,,001,2022-07-26_10h59.41.382,finley_et_al,2022.2.1,None,
sled,trenó,uniat,1,0,1,0,0,6,6,8,,,,,,,,,,,,,,,,,,,,,,,,,,,,,,,,,,,,,,,,,,,001,2022-07-26_10h59.41.382,finley_et_al,2022.2.1,None,
rainbow,arco-íris,nigaq,1,0,1,0,0,7,7,7,,,,,,,,,,,,,,,,,,,,,,,,,,,,,,,,,,,,,,,,,,,001,2022-07-26_10h59.41.382,finley_et_al,2022.2.1,None,
tea,chá,saiyu,1,0,1,0,0,8,8,10,,,,,,,,,,,,,,,,,,,,,,,,,,,,,,,,,,,,,,,,,,,001,2022-07-26_10h59.41.382,finley_et_al,2022.2.1,None,
snail,lesma,uvixu,1,0,1,0,0,9,9,9,,,,,,,,,,,,,,,,,,,,,,,,,,,,,,,,,,,,,,,,,,,001,2022-07-26_10h59.41.382,finley_et_al,2022.2.1,None,
duck,pato,mitiq,1,0,1,0,0,10,10,2,,,,,,,,,,,,,,,,,,,,,,,,,,,,,,,,,,,,,,,,,,,001,2022-07-26_10h59.41.382,finley_et_al,2022.2.1,None,
heaven,paraíso,qixak,1,0,1,0,0,11,11,4,,,,,,,,,,,,,,,,,,,,,,,,,,,,,,,,,,,,,,,,,,,001,2022-07-26_10h59.41.382,finley_et_al,2022.2.1,None,
dust,pó,apyuq,2,0,2,0,0,0,0,3,,,,,,,,,,,,,,,,,,,,,,,,,,,,,,,,,,,,,,,,,,,001,2022-07-26_10h59.41.382,finley_et_al,2022.2.1,None,
cliff,penhasco,ikpik,2,0,2,0,0,1,1,1,,,,,,,,,,,,,,,,,,,,,,,,,,,,,,,,,,,,,,,,,,,001,2022-07-26_10h59.41.382,finley_et_al,2022.2.1,None,
boot,bota,kamik,2,0,2,0,0,2,2,0,,,,,,,,,,,,,,,,,,,,,,,,,,,,,,,,,,,,,,,,,,,001,2022-07-26_10h59.41.382,finley_et_al,2022.2.1,None,
thread,fio,ivalu,2,0,2,0,0,3,3,11,,,,,,,,,,,,,,,,,,,,,,,,,,,,,,,,,,,,,,,,,,,001,2022-07-26_10h59.41.382,finley_et_al,2022.2.1,None,
kidney,rim,taqtu,2,0,2,0,0,4,4,5,,,,,,,,,,,,,,,,,,,,,,,,,,,,,,,,,,,,,,,,,,,001,2022-07-26_10h59.41.382,finley_et_al,2022.2.1,None,
mark,marca,aglak,2,0,2,0,0,5,5,6,,,,,,,,,,,,,,,,,,,,,,,,,,,,,,,,,,,,,,,,,,,001,2022-07-26_10h59.41.382,finley_et_al,2022.2.1,None,
sled,trenó,uniat,2,0,2,0,0,6,6,8,,,,,,,,,,,,,,,,,,,,,,,,,,,,,,,,,,,,,,,,,,,001,2022-07-26_10h59.41.382,finley_et_al,2022.2.1,None,
rainbow,arco-íris,nigaq,2,0,2,0,0,7,7,7,,,,,,,,,,,,,,,,,,,,,,,,,,,,,,,,,,,,,,,,,,,001,2022-07-26_10h59.41.382,finley_et_al,2022.2.1,None,
tea,chá,saiyu,2,0,2,0,0,8,8,10,,,,,,,,,,,,,,,,,,,,,,,,,,,,,,,,,,,,,,,,,,,001,2022-07-26_10h59.41.382,finley_et_al,2022.2.1,None,
snail,lesma,uvixu,2,0,2,0,0,9,9,9,,,,,,,,,,,,,,,,,,,,,,,,,,,,,,,,,,,,,,,,,,,001,2022-07-26_10h59.41.382,finley_et_al,2022.2.1,None,
duck,pato,mitiq,2,0,2,0,0,10,10,2,,,,,,,,,,,,,,,,,,,,,,,,,,,,,,,,,,,,,,,,,,,001,2022-07-26_10h59.41.382,finley_et_al,2022.2.1,None,
heaven,paraíso,qixak,2,0,2,0,0,11,11,4,,,,,,,,,,,,,,,,,,,,,,,,,,,,,,,,,,,,,,,,,,,001,2022-07-26_10h59.41.382,finley_et_al,2022.2.1,None,
,,,,,,,,,,,,,,,,,,,,,,,,,,,,,,,60.830826100000195,69.86750200000006,69.86750200000006,space,12.063687900000332,,,,,,,,,,,,,,,,,,001,2022-07-26_10h59.41.382,finley_et_al,2022.2.1,None,
tea,chá,saiyu,,,,,,,,,0,0,0,0,0,0,0,0,0,0,0,0,,,,,,,,,,,,,,81.99715470000046,81.99715470000046,81.99715470000046,81.99715470000046,s a i y u,somente estudo,xxxxx,,,,,,,,,,,001,2022-07-26_10h59.41.382,finley_et_al,2022.2.1,None,
thread,fio,ivalu,,,,,,,,,0,0,0,0,0,0,0,0,0,1,1,3,,,,,,,,,,,,,,83.94566860000032,83.94566860000032,83.94566860000032,83.94566860000032,_ _ _ _ _,acumulação,xxxxx,,,,,,,,,,,001,2022-07-26_10h59.41.382,finley_et_al,2022.2.1,None,
rainbow,arco-íris,nigaq,,,,,,,,,0,0,0,0,0,0,0,0,0,2,2,5,,,,,,,,,,,,,,84.82584110000062,84.82584110000062,84.82584110000062,84.82584110000062,n i g a q,somente estudo,xxxxx,,,,,,,,,,,001,2022-07-26_10h59.41.382,finley_et_al,2022.2.1,None,
heaven,paraíso,qixak,,,,,,,,,0,0,0,0,0,0,0,0,0,3,3,1,,,,,,,,,,,,,,85.66529880000053,85.66529880000053,85.66529880000053,85.66529880000053,q i x a k,diminuição,xxxxx,,,,,,,,,,,001,2022-07-26_10h59.41.382,finley_et_al,2022.2.1,None,
mark,marca,aglak,,,,,,,,,0,0,0,0,0,0,0,0,0,4,4,2,,,,,,,,,,,,,,86.39200870000059,86.39200870000059,86.39200870000059,86.39200870000059,_ _ _ _ _,acumulação,xxxxx,,,,,,,,,,,001,2022-07-26_10h59.41.382,finley_et_al,2022.2.1,None,
snail,lesma,uvixu,,,,,,,,,0,0,0,0,0,0,0,0,0,5,5,4,,,,,,,,,,,,,,87.14507140000023,87.14507140000023,87.14507140000023,87.14507140000023,u v i x u,diminuição,xxxxx,,,,,,,,,,,001,2022-07-26_10h59.41.382,finley_et_al,2022.2.1,None,
tea,chá,saiyu,,,,,,,,,0,0,0,0,1,0,1,0,0,0,0,0,,,,,,,,,,,,,,87.97808720000012,87.97808720000012,87.97808720000012,87.97808720000012,s a i y u,somente estudo,xxxxx,,,,,,,,,,,001,2022-07-26_10h59.41.382,finley_et_al,2022.2.1,None,
thread,fio,ivalu,,,,,,,,,0,0,0,0,1,0,1,0,0,1,1,3,,,,,,,,,,,,,,88.69716580000022,88.69716580000022,88.69716580000022,88.69716580000022,_ _ _ l _,acumulação,xxxxx,,,,,,,,,,,001,2022-07-26_10h59.41.382,finley_et_al,2022.2.1,None,
rainbow,arco-íris,nigaq,,,,,,,,,0,0,0,0,1,0,1,0,0,2,2,5,,,,,,,,,,,,,,89.51326100000006,89.51326100000006,89.51326100000006,89.51326100000006,n i g a q,somente estudo,xxxxxx,,,,,,,,,,,001,2022-07-26_10h59.41.382,finley_et_al,2022.2.1,None,
heaven,paraíso,qixak,,,,,,,,,0,0,0,0,1,0,1,0,0,3,3,1,,,,,,,,,,,,,,90.82428160000018,90.82428160000018,90.82428160000018,90.82428160000018,_ i x a k,diminuição,xxxxx,,,,,,,,,,,001,2022-07-26_10h59.41.382,finley_et_al,2022.2.1,None,
mark,marca,aglak,,,,,,,,,0,0,0,0,1,0,1,0,0,4,4,2,,,,,,,,,,,,,,91.79536569999982,91.79536569999982,91.79536569999982,91.79536569999982,_ _ l _ _,acumulação,xxxxx,,,,,,,,,,,001,2022-07-26_10h59.41.382,finley_et_al,2022.2.1,None,
snail,lesma,uvixu,,,,,,,,,0,0,0,0,1,0,1,0,0,5,5,4,,,,,,,,,,,,,,92.6127290000004,92.6127290000004,92.6127290000004,92.6127290000004,u v _ x u,diminuição,xxxxx,,,,,,,,,,,001,2022-07-26_10h59.41.382,finley_et_al,2022.2.1,None,
tea,chá,saiyu,,,,,,,,,0,0,0,0,2,0,2,0,0,0,0,0,,,,,,,,,,,,,,93.41110610000032,93.41110610000032,93.41110610000032,93.41110610000032,s a i y u,somente estudo,xxxxx,,,,,,,,,,,001,2022-07-26_10h59.41.382,finley_et_al,2022.2.1,None,
thread,fio,ivalu,,,,,,,,,0,0,0,0,2,0,2,0,0,1,1,3,,,,,,,,,,,,,,94.12552760000017,94.12552760000017,94.12552760000017,94.12552760000017,_ _ _ l u,acumulação,xxxxx,,,,,,,,,,,001,2022-07-26_10h59.41.382,finley_et_al,2022.2.1,None,
rainbow,arco-íris,nigaq,,,,,,,,,0,0,0,0,2,0,2,0,0,2,2,5,,,,,,,,,,,,,,94.89179870000044,94.89179870000044,94.89179870000044,94.89179870000044,n i g a q,somente estudo,xxxxxxx,,,,,,,,,,,001,2022-07-26_10h59.41.382,finley_et_al,2022.2.1,None,
heaven,paraíso,qixak,,,,,,,,,0,0,0,0,2,0,2,0,0,3,3,1,,,,,,,,,,,,,,99.14517990000058,99.14517990000058,99.14517990000058,99.14517990000058,_ _ x a k,diminuição,xxxxx,,,,,,,,,,,001,2022-07-26_10h59.41.382,finley_et_al,2022.2.1,None,
mark,marca,aglak,,,,,,,,,0,0,0,0,2,0,2,0,0,4,4,2,,,,,,,,,,,,,,100.39037009999993,100.39037009999993,100.39037009999993,100.39037009999993,a _ l _ _,acumulação,xxxxx,,,,,,,,,,,001,2022-07-26_10h59.41.382,finley_et_al,2022.2.1,None,
snail,lesma,uvixu,,,,,,,,,0,0,0,0,2,0,2,0,0,5,5,4,,,,,,,,,,,,,,101.29636339999979,101.29636339999979,101.29636339999979,101.29636339999979,_ v _ x u,diminuição,xxxxx,,,,,,,,,,,001,2022-07-26_10h59.41.382,finley_et_al,2022.2.1,None,
tea,chá,saiyu,,,,,,,,,0,0,0,0,3,0,3,0,0,0,0,0,,,,,,,,,,,,,,102.1233841000003,102.1233841000003,102.1233841000003,102.1233841000003,s a i y u,somente estudo,xxxxx,,,,,,,,,,,001,2022-07-26_10h59.41.382,finley_et_al,2022.2.1,None,
thread,fio,ivalu,,,,,,,,,0,0,0,0,3,0,3,0,0,1,1,3,,,,,,,,,,,,,,102.92350520000036,102.92350520000036,102.92350520000036,102.92350520000036,_ v _ l u,acumulação,xxxxx,,,,,,,,,,,001,2022-07-26_10h59.41.382,finley_et_al,2022.2.1,None,
rainbow,arco-íris,nigaq,,,,,,,,,0,0,0,0,3,0,3,0,0,2,2,5,,,,,,,,,,,,,,103.73124110000026,103.73124110000026,103.73124110000026,103.73124110000026,n i g a q,somente estudo,xxxxx,,,,,,,,,,,001,2022-07-26_10h59.41.382,finley_et_al,2022.2.1,None,
heaven,paraíso,qixak,,,,,,,,,0,0,0,0,3,0,3,0,0,3,3,1,,,,,,,,,,,,,,104.77720910000062,104.77720910000062,104.77720910000062,104.77720910000062,_ _ x a _,diminuição,xxxxx,,,,,,,,,,,001,2022-07-26_10h59.41.382,finley_et_al,2022.2.1,None,
mark,marca,aglak,,,,,,,,,0,0,0,0,3,0,3,0,0,4,4,2,,,,,,,,,,,,,,105.61052780000045,105.61052780000045,105.61052780000045,105.61052780000045,a _ l _ k,acumulação,xxxxx,,,,,,,,,,,001,2022-07-26_10h59.41.382,finley_et_al,2022.2.1,None,
snail,lesma,uvixu,,,,,,,,,0,0,0,0,3,0,3,0,0,5,5,4,,,,,,,,,,,,,,106.52416059999996,106.52416059999996,106.52416059999996,106.52416059999996,_ _ _ x u,diminuição,xxxxx,,,,,,,,,,,001,2022-07-26_10h59.41.382,finley_et_al,2022.2.1,None,
tea,chá,saiyu,,,,,,,,,0,0,0,0,4,0,4,0,0,0,0,0,,,,,,,,,,,,,,107.36288680000052,107.36288680000052,107.36288680000052,107.36288680000052,s a i y u,somente estudo,xxxxx,,,,,,,,,,,001,2022-07-26_10h59.41.382,finley_et_al,2022.2.1,None,
thread,fio,ivalu,,,,,,,,,0,0,0,0,4,0,4,0,0,1,1,3,,,,,,,,,,,,,,108.23100580000028,108.23100580000028,108.23100580000028,108.23100580000028,_ v a l u,acumulação,xxxxx,,,,,,,,,,,001,2022-07-26_10h59.41.382,finley_et_al,2022.2.1,None,
rainbow,arco-íris,nigaq,,,,,,,,,0,0,0,0,4,0,4,0,0,2,2,5,,,,,,,,,,,,,,109.07695899999999,109.07695899999999,109.07695899999999,109.07695899999999,n i g a q,somente estudo,xxxxx,,,,,,,,,,,001,2022-07-26_10h59.41.382,finley_et_al,2022.2.1,None,
heaven,paraíso,qixak,,,,,,,,,0,0,0,0,4,0,4,0,0,3,3,1,,,,,,,,,,,,,,109.89501430000018,109.89501430000018,109.89501430000018,109.89501430000018,_ _ x _ _,diminuição,xxxxx,,,,,,,,,,,001,2022-07-26_10h59.41.382,finley_et_al,2022.2.1,None,
mark,marca,aglak,,,,,,,,,0,0,0,0,4,0,4,0,0,4,4,2,,,,,,,,,,,,,,110.72351419999995,110.72351419999995,110.72351419999995,110.72351419999995,a _ l a k,acumulação,xxxxx,,,,,,,,,,,001,2022-07-26_10h59.41.382,finley_et_al,2022.2.1,None,
snail,lesma,uvixu,,,,,,,,,0,0,0,0,4,0,4,0,0,5,5,4,,,,,,,,,,,,,,111.5607912000005,111.5607912000005,111.5607912000005,111.5607912000005,_ _ _ x _,diminuição,xxxxx,,,,,,,,,,,001,2022-07-26_10h59.41.382,finley_et_al,2022.2.1,None,
tea,chá,saiyu,,,,,,,,,0,0,0,0,5,0,5,0,0,0,0,0,,,,,,,,,,,,,,112.44498850000036,112.44498850000036,112.44498850000036,112.44498850000036,s a i y u,somente estudo,xxxxx,,,,,,,,,,,001,2022-07-26_10h59.41.382,finley_et_al,2022.2.1,None,
thread,fio,ivalu,,,,,,,,,0,0,0,0,5,0,5,0,0,1,1,3,,,,,,,,,,,,,,113.44332060000033,113.44332060000033,113.44332060000033,113.44332060000033,i v a l u,acumulação,xxxxx,,,,,,,,,,,001,2022-07-26_10h59.41.382,finley_et_al,2022.2.1,None,
rainbow,arco-íris,nigaq,,,,,,,,,0,0,0,0,5,0,5,0,0,2,2,5,,,,,,,,,,,,,,114.34459860000061,114.34459860000061,114.34459860000061,114.34459860000061,n i g a q,somente estudo,xxxxx,,,,,,,,,,,001,2022-07-26_10h59.41.382,finley_et_al,2022.2.1,None,
heaven,paraíso,qixak,,,,,,,,,0,0,0,0,5,0,5,0,0,3,3,1,,,,,,,,,,,,,,115.21134249999977,115.21134249999977,115.21134249999977,115.21134249999977,_ _ _ _ _,diminuição,xxxxx,,,,,,,,,,,001,2022-07-26_10h59.41.382,finley_et_al,2022.2.1,None,
mark,marca,aglak,,,,,,,,,0,0,0,0,5,0,5,0,0,4,4,2,,,,,,,,,,,,,,116.09429520000049,116.09429520000049,116.09429520000049,116.09429520000049,a g l a k,acumulação,xxxxx,,,,,,,,,,,001,2022-07-26_10h59.41.382,finley_et_al,2022.2.1,None,
snail,lesma,uvixu,,,,,,,,,0,0,0,0,5,0,5,0,0,5,5,4,,,,,,,,,,,,,,117.04522850000012,117.04522850000012,117.04522850000012,117.04522850000012,_ _ _ _ _,diminuição,xxxxx,,,,,,,,,,,001,2022-07-26_10h59.41.382,finley_et_al,2022.2.1,None,
boot,bota,kamik,,,,,,,,,1,0,1,0,0,0,0,0,0,0,0,0,,,,,,,,,,,,,,117.85655620000034,117.85655620000034,117.85655620000034,117.85655620000034,k a m i k,diminuição,xxxxxxx,,,,,,,,,,,001,2022-07-26_10h59.41.382,finley_et_al,2022.2.1,None,
cliff,penhasco,ikpik,,,,,,,,,1,0,1,0,0,0,0,0,0,1,1,3,,,,,,,,,,,,,,119.44456790000004,119.44456790000004,119.44456790000004,119.44456790000004,i k p i k,diminuição,xxxxxx,,,,,,,,,,,001,2022-07-26_10h59.41.382,finley_et_al,2022.2.1,None,
dust,pó,apyuq,,,,,,,,,1,0,1,0,0,0,0,0,0,2,2,5,,,,,,,,,,,,,,121.1110606000002,121.1110606000002,121.1110606000002,121.1110606000002,_ _ _ _ _,acumulação,xxxxxx,,,,,,,,,,,001,2022-07-26_10h59.41.382,finley_et_al,2022.2.1,None,
duck,pato,mitiq,,,,,,,,,1,0,1,0,0,0,0,0,0,3,3,1,,,,,,,,,,,,,,122.91092000000026,122.91092000000026,122.91092000000026,122.91092000000026,m i t i q,somente estudo,xxxxx,,,,,,,,,,,001,2022-07-26_10h59.41.382,finley_et_al,2022.2.1,None,
sled,trenó,uniat,,,,,,,,,1,0,1,0,0,0,0,0,0,4,4,2,,,,,,,,,,,,,,125.72890900000039,125.72890900000039,125.72890900000039,125.72890900000039,u n i a t,somente estudo,xxxxx,,,,,,,,,,,001,2022-07-26_10h59.41.382,finley_et_al,2022.2.1,None,
kidney,rim,taqtu,,,,,,,,,1,0,1,0,0,0,0,0,0,5,5,4,,,,,,,,,,,,,,126.95625230000041,126.95625230000041,126.95625230000041,126.95625230000041,_ _ _ _ _,acumulação,xxxxx,,,,,,,,,,,001,2022-07-26_10h59.41.382,finley_et_al,2022.2.1,None,
boot,bota,kamik,,,,,,,,,1,0,1,0,1,0,1,0,0,0,0,0,,,,,,,,,,,,,,128.22227930000008,128.22227930000008,128.22227930000008,128.22227930000008,k _ m i k,diminuição,xxxxx,,,,,,,,,,,001,2022-07-26_10h59.41.382,finley_et_al,2022.2.1,None,
cliff,penhasco,ikpik,,,,,,,,,1,0,1,0,1,0,1,0,0,1,1,3,,,,,,,,,,,,,,129.79364970000006,129.79364970000006,129.79364970000006,129.79364970000006,i k p i _,diminuição,xxxxx,,,,,,,,,,,001,2022-07-26_10h59.41.382,finley_et_al,2022.2.1,None,
dust,pó,apyuq,,,,,,,,,1,0,1,0,1,0,1,0,0,2,2,5,,,,,,,,,,,,,,130.8890263000003,130.8890263000003,130.8890263000003,130.8890263000003,_ _ _ u _,acumulação,xxxxx,,,,,,,,,,,001,2022-07-26_10h59.41.382,finley_et_al,2022.2.1,None,
duck,pato,mitiq,,,,,,,,,1,0,1,0,1,0,1,0,0,3,3,1,,,,,,,,,,,,,,131.71247349999976,131.71247349999976,131.71247349999976,131.71247349999976,m i t i q,somente estudo,xxxxx,,,,,,,,,,,001,2022-07-26_10h59.41.382,finley_et_al,2022.2.1,None,
sled,trenó,uniat,,,,,,,,,1,0,1,0,1,0,1,0,0,4,4,2,,,,,,,,,,,,,,132.5424579999999,132.5424579999999,132.5424579999999,132.5424579999999,u n i a t,somente estudo,xxxxx,,,,,,,,,,,001,2022-07-26_10h59.41.382,finley_et_al,2022.2.1,None,
kidney,rim,taqtu,,,,,,,,,1,0,1,0,1,0,1,0,0,5,5,4,,,,,,,,,,,,,,133.37585219999983,133.37585219999983,133.37585219999983,133.37585219999983,_ a _ _ _,acumulação,xxxxx,,,,,,,,,,,001,2022-07-26_10h59.41.382,finley_et_al,2022.2.1,None,
boot,bota,kamik,,,,,,,,,1,0,1,0,2,0,2,0,0,0,0,0,,,,,,,,,,,,,,134.25881050000044,134.25881050000044,134.25881050000044,134.25881050000044,k _ m _ k,diminuição,xxxxxxx,,,,,,,,,,,001,2022-07-26_10h59.41.382,finley_et_al,2022.2.1,None,
cliff,penhasco,ikpik,,,,,,,,,1,0,1,0,2,0,2,0,0,1,1,3,,,,,,,,,,,,,,135.54231170000003,135.54231170000003,135.54231170000003,135.54231170000003,i k p _ _,diminuição,xxxxxx,,,,,,,,,,,001,2022-07-26_10h59.41.382,finley_et_al,2022.2.1,None,
dust,pó,apyuq,,,,,,,,,1,0,1,0,2,0,2,0,0,2,2,5,,,,,,,,,,,,,,137.15509350000048,137.15509350000048,137.15509350000048,137.15509350000048,_ _ _ u q,acumulação,xxxxx,,,,,,,,,,,001,2022-07-26_10h59.41.382,finley_et_al,2022.2.1,None,
duck,pato,mitiq,,,,,,,,,1,0,1,0,2,0,2,0,0,3,3,1,,,,,,,,,,,,,,138.15527569999995,138.15527569999995,138.15527569999995,138.15527569999995,m i t i q,somente estudo,xxxxx,,,,,,,,,,,001,2022-07-26_10h59.41.382,finley_et_al,2022.2.1,None,
sled,trenó,uniat,,,,,,,,,1,0,1,0,2,0,2,0,0,4,4,2,,,,,,,,,,,,,,139.00936530000035,139.00936530000035,139.00936530000035,139.00936530000035,u n i a t,somente estudo,xxxxx,,,,,,,,,,,001,2022-07-26_10h59.41.382,finley_et_al,2022.2.1,None,
kidney,rim,taqtu,,,,,,,,,1,0,1,0,2,0,2,0,0,5,5,4,,,,,,,,,,,,,,140.4217821000002,140.4217821000002,140.4217821000002,140.4217821000002,_ a _ _ u,acumulação,xxxxx,,,,,,,,,,,001,2022-07-26_10h59.41.382,finley_et_al,2022.2.1,None,
boot,bota,kamik,,,,,,,,,1,0,1,0,3,0,3,0,0,0,0,0,,,,,,,,,,,,,,141.32909550000022,141.32909550000022,141.32909550000022,141.32909550000022,k _ m _ _,diminuição,xxxxx,,,,,,,,,,,001,2022-07-26_10h59.41.382,finley_et_al,2022.2.1,None,
cliff,penhasco,ikpik,,,,,,,,,1,0,1,0,3,0,3,0,0,1,1,3,,,,,,,,,,,,,,142.22207590000016,142.22207590000016,142.22207590000016,142.22207590000016,i _ p _ _,diminuição,xxxxx,,,,,,,,,,,001,2022-07-26_10h59.41.382,finley_et_al,2022.2.1,None,
dust,pó,apyuq,,,,,,,,,1,0,1,0,3,0,3,0,0,2,2,5,,,,,,,,,,,,,,143.12667560000045,143.12667560000045,143.12667560000045,143.12667560000045,a _ _ u q,acumulação,xxxxx,,,,,,,,,,,001,2022-07-26_10h59.41.382,finley_et_al,2022.2.1,None,
duck,pato,mitiq,,,,,,,,,1,0,1,0,3,0,3,0,0,3,3,1,,,,,,,,,,,,,,143.99362660000043,143.99362660000043,143.99362660000043,143.99362660000043,m i t i q,somente estudo,xxxxx,,,,,,,,,,,001,2022-07-26_10h59.41.382,finley_et_al,2022.2.1,None,
sled,trenó,uniat,,,,,,,,,1,0,1,0,3,0,3,0,0,4,4,2,,,,,,,,,,,,,,144.85862780000025,144.85862780000025,144.85862780000025,144.85862780000025,u n i a t,somente estudo,xxxxx,,,,,,,,,,,001,2022-07-26_10h59.41.382,finley_et_al,2022.2.1,None,
kidney,rim,taqtu,,,,,,,,,1,0,1,0,3,0,3,0,0,5,5,4,,,,,,,,,,,,,,145.66052459999992,145.66052459999992,145.66052459999992,145.66052459999992,_ a _ t u,acumulação,xxxxx,,,,,,,,,,,001,2022-07-26_10h59.41.382,finley_et_al,2022.2.1,None,
boot,bota,kamik,,,,,,,,,1,0,1,0,4,0,4,0,0,0,0,0,,,,,,,,,,,,,,146.52744450000046,146.52744450000046,146.52744450000046,146.52744450000046,k _ _ _ _,diminuição,xxxxx,,,,,,,,,,,001,2022-07-26_10h59.41.382,finley_et_al,2022.2.1,None,
cliff,penhasco,ikpik,,,,,,,,,1,0,1,0,4,0,4,0,0,1,1,3,,,,,,,,,,,,,,147.35507490000055,147.35507490000055,147.35507490000055,147.35507490000055,i _ _ _ _,diminuição,xxxxx,,,,,,,,,,,001,2022-07-26_10h59.41.382,finley_et_al,2022.2.1,None,
dust,pó,apyuq,,,,,,,,,1,0,1,0,4,0,4,0,0,2,2,5,,,,,,,,,,,,,,148.68804,148.68804,148.68804,148.68804,a p _ u q,acumulação,xxxxx,,,,,,,,,,,001,2022-07-26_10h59.41.382,finley_et_al,2022.2.1,None,
duck,pato,mitiq,,,,,,,,,1,0,1,0,4,0,4,0,0,3,3,1,,,,,,,,,,,,,,149.75492300000042,149.75492300000042,149.75492300000042,149.75492300000042,m i t i q,somente estudo,xxxxx,,,,,,,,,,,001,2022-07-26_10h59.41.382,finley_et_al,2022.2.1,None,
sled,trenó,uniat,,,,,,,,,1,0,1,0,4,0,4,0,0,4,4,2,,,,,,,,,,,,,,150.74211250000008,150.74211250000008,150.74211250000008,150.74211250000008,u n i a t,somente estudo,xxxxx,,,,,,,,,,,001,2022-07-26_10h59.41.382,finley_et_al,2022.2.1,None,
kidney,rim,taqtu,,,,,,,,,1,0,1,0,4,0,4,0,0,5,5,4,,,,,,,,,,,,,,151.7422443000005,151.7422443000005,151.7422443000005,151.7422443000005,t a _ t u,acumulação,xxxxx,,,,,,,,,,,001,2022-07-26_10h59.41.382,finley_et_al,2022.2.1,None,
boot,bota,kamik,,,,,,,,,1,0,1,0,5,0,5,0,0,0,0,0,,,,,,,,,,,,,,152.68780179999976,152.68780179999976,152.68780179999976,152.68780179999976,_ _ _ _ _,diminuição,xxxxx,,,,,,,,,,,001,2022-07-26_10h59.41.382,finley_et_al,2022.2.1,None,
cliff,penhasco,ikpik,,,,,,,,,1,0,1,0,5,0,5,0,0,1,1,3,,,,,,,,,,,,,,154.12723330000063,154.12723330000063,154.12723330000063,154.12723330000063,_ _ _ _ _,diminuição,xxxxx,,,,,,,,,,,001,2022-07-26_10h59.41.382,finley_et_al,2022.2.1,None,
dust,pó,apyuq,,,,,,,,,1,0,1,0,5,0,5,0,0,2,2,5,,,,,,,,,,,,,,155.25785570000062,155.25785570000062,155.25785570000062,155.25785570000062,a p y u q,acumulação,xxxxx,,,,,,,,,,,001,2022-07-26_10h59.41.382,finley_et_al,2022.2.1,None,
duck,pato,mitiq,,,,,,,,,1,0,1,0,5,0,5,0,0,3,3,1,,,,,,,,,,,,,,156.1417833000005,156.1417833000005,156.1417833000005,156.1417833000005,m i t i q,somente estudo,xxxxx,,,,,,,,,,,001,2022-07-26_10h59.41.382,finley_et_al,2022.2.1,None,
sled,trenó,uniat,,,,,,,,,1,0,1,0,5,0,5,0,0,4,4,2,,,,,,,,,,,,,,157.1543074000001,157.1543074000001,157.1543074000001,157.1543074000001,u n i a t,somente estudo,xxxxx,,,,,,,,,,,001,2022-07-26_10h59.41.382,finley_et_al,2022.2.1,None,
kidney,rim,taqtu,,,,,,,,,1,0,1,0,5,0,5,0,0,5,5,4,,,,,,,,,,,,,,158.28780319999987,158.28780319999987,158.28780319999987,158.28780319999987,t a q t u,acumulação,xxxxx,,,,,,,,,,,001,2022-07-26_10h59.41.382,finley_et_al,2022.2.1,None,
,,,,,,,,,,,,,,,,,,,,,,,,,,,,,,,166.8427810000003,,,,,,,,,,,,175.85777560000042,175.85777560000042,space,2.772037200000341,,,,,,,001,2022-07-26_10h59.41.382,finley_et_al,2022.2.1,None,
sled,trenó,uniat,,,,,,,,,,,,,,,,,,,,,0,0,0,8,,,,,,,,,,,,,,,,,,,,,178.70738299999994,178.70738299999994,178.70738299999994,xxxxx,,,001,2022-07-26_10h59.41.382,finley_et_al,2022.2.1,None,
dust,pó,apyuq,,,,,,,,,,,,,,,,,,,,,0,1,1,3,,,,,,,,,,,,,,,,,,,,,180.2455933000001,180.2455933000001,180.2455933000001,xxxxx,,,001,2022-07-26_10h59.41.382,finley_et_al,2022.2.1,None,
mark,marca,aglak,,,,,,,,,,,,,,,,,,,,,0,2,2,6,,,,,,,,,,,,,,,,,,,,,181.57503950000046,181.57503950000046,181.57503950000046,xxxxx,,,001,2022-07-26_10h59.41.382,finley_et_al,2022.2.1,None,
duck,pato,mitiq,,,,,,,,,,,,,,,,,,,,,0,3,3,2,,,,,,,,,,,,,,,,,,,,,182.54293980000057,182.54293980000057,182.54293980000057,xxxxx,,,001,2022-07-26_10h59.41.382,finley_et_al,2022.2.1,None,
rainbow,arco-íris,nigaq,,,,,,,,,,,,,,,,,,,,,0,4,4,7,,,,,,,,,,,,,,,,,,,,,183.98642800000016,183.98642800000016,183.98642800000016,xxxxx,,,001,2022-07-26_10h59.41.382,finley_et_al,2022.2.1,None,
heaven,paraíso,qixak,,,,,,,,,,,,,,,,,,,,,0,5,5,4,,,,,,,,,,,,,,,,,,,,,184.90720340000007,184.90720340000007,184.90720340000007,xxxxx,,,001,2022-07-26_10h59.41.382,finley_et_al,2022.2.1,None,
snail,lesma,uvixu,,,,,,,,,,,,,,,,,,,,,0,6,6,9,,,,,,,,,,,,,,,,,,,,,185.90655340000012,185.90655340000012,185.90655340000012,xxxxx,,,001,2022-07-26_10h59.41.382,finley_et_al,2022.2.1,None,
kidney,rim,taqtu,,,,,,,,,,,,,,,,,,,,,0,7,7,5,,,,,,,,,,,,,,,,,,,,,187.04063660000065,187.04063660000065,187.04063660000065,xxxxx,,,001,2022-07-26_10h59.41.382,finley_et_al,2022.2.1,None,
tea,chá,saiyu,,,,,,,,,,,,,,,,,,,,,0,8,8,10,,,,,,,,,,,,,,,,,,,,,188.3071786999999,188.3071786999999,188.3071786999999,xxxxx,,,001,2022-07-26_10h59.41.382,finley_et_al,2022.2.1,None,
cliff,penhasco,ikpik,,,,,,,,,,,,,,,,,,,,,0,9,9,1,,,,,,,,,,,,,,,,,,,,,189.1900727000002,189.1900727000002,189.1900727000002,xxxxx,,,001,2022-07-26_10h59.41.382,finley_et_al,2022.2.1,None,
thread,fio,ivalu,,,,,,,,,,,,,,,,,,,,,0,10,10,11,,,,,,,,,,,,,,,,,,,,,190.08716400000048,190.08716400000048,190.08716400000048,xxxxx,,,001,2022-07-26_10h59.41.382,finley_et_al,2022.2.1,None,
boot,bota,kamik,,,,,,,,,,,,,,,,,,,,,0,11,11,0,,,,,,,,,,,,,,,,,,,,,191.1072350000004,191.1072350000004,191.1072350000004,xxxxx,,,001,2022-07-26_10h59.41.382,finley_et_al,2022.2.1,None,
,,,,,,,,,,,,,,,,,,,,,,,,,,,,,,,,,,,,,,,,,,,,,,,,,,,192.17437640000026,,,,,,,
